trials.thisRepN,trials.thisTrialN,trials.thisN,trials.thisIndex,textbox.started,textbox.stopped,key_resp_2.keys,key_resp_2.rt,key_resp_2.started,key_resp_2.stopped,block_type,learning_type,trial_type,image_path,x_image,trial,person.started,person.stopped,text.started,text.stopped,text_2.started,text_2.stopped,key_resp.keys,key_resp.started,key_resp.stopped,text_4.started,text_4.stopped,line.started,line.stopped,text_5.started,text_5.stopped,reward_a,reward_d,reward,image.started,image.stopped,text_3.started,text_3.stopped,line_2.started,line_2.stopped,text_6.started,text_6.stopped,key_resp.rt,session,exp_id,age,sex(M or F),date,expName,psychopyVersion,frameRate,
,,,,19.844086272136337,None,f,2.330496522266003,19.844086272136337,None,,,,,,,,,,,,,,,,,,,,,,,,,,,,,,,,,,2,1,23,M,2021_Aug_02_1239,Social Reinforcement Learning,2021.1.4,59.958263061158995,
0,0,0,0,,,,,,,Social,SD,Observational,images/Observational_trial.png,-0.5,1,22.729054781716513,None,23.72587452977723,24.99141213457733,24.476114530156337,24.99141213457733,None,26.742767277459325,None,25.482678491146544,26.489596823066677,22.24304710012393,None,22.729054781716513,None,0.7,0.30000000000000004,?,26.756802776182212,None,27.23887247624316,None,26.756802776182212,None,26.756802776182212,None,,2,1,23,M,2021_Aug_02_1239,Social Reinforcement Learning,2021.1.4,59.958263061158995,
1,0,1,0,,,,,,,Social,SD,Private,images/Private_trial.png,0.5,2,29.30352166482453,None,30.30461954310249,31.5686258862238,31.052150995991724,31.551773711445094,d,31.551773711445094,None,32.23712578706322,None,28.809280093677444,None,29.30352166482453,None,0.7,0.30000000000000004,-1,32.268818992701654,None,32.750524840335856,None,32.268818992701654,None,32.268818992701654,None,0.658541287571552,2,1,23,M,2021_Aug_02_1239,Social Reinforcement Learning,2021.1.4,59.958263061158995,
2,0,2,0,,,,,,,Social,SD,Private,images/Private_trial.png,0.5,3,34.732159971808414,None,35.73113478500318,36.99657678471385,36.48021843787592,36.980530537134655,d,36.980530537134655,None,37.596071934533526,None,34.249379159512955,None,34.732159971808414,None,0.7,0.30000000000000004,-1,37.60068914676822,None,38.09329594990004,39.5943195564555,37.60068914676822,None,37.60068914676822,None,0.5899778211996818,2,1,23,M,2021_Aug_02_1239,Social Reinforcement Learning,2021.1.4,59.958263061158995,
3,0,3,0,,,,,,,Social,SD,Private,images/Private_trial.png,0.5,4,40.09400192632393,None,41.09274997372859,42.3582192327417,41.842230664266026,42.34143777412419,a,42.34143777412419,None,43.19075455329134,None,39.61108402739228,None,40.09400192632393,None,0.7,0.30000000000000004,1,43.199554685716066,None,43.69149146309792,None,43.199554685716066,None,43.199554685716066,None,0.8340947501742448,2,1,23,M,2021_Aug_02_1239,Social Reinforcement Learning,2021.1.4,59.958263061158995,
4,0,4,0,,,,,,,Social,SD,Private,images/Private_trial.png,0.5,5,45.68847634722215,None,46.68746972834742,47.95501227458726,47.436792393943506,47.93700375230219,a,47.93700375230219,None,49.13594873828929,None,45.20578323876862,None,45.68847634722215,None,0.7,0.30000000000000004,1,49.13973473933402,None,49.63457324969613,None,49.13973473933402,None,49.13973473933402,None,1.1797747038413036,2,1,23,M,2021_Aug_02_1239,Social Reinforcement Learning,2021.1.4,59.958263061158995,
5,0,5,0,,,,,,,Social,SD,Observational,images/Observational_trial.png,-0.5,6,51.64996092833326,None,52.648898605667,53.91413833345314,53.40108705356988,53.91413833345314,None,55.6626359903385,None,54.39698156560053,55.39591726762228,51.154688639508095,None,51.64996092833326,None,0.7,0.30000000000000004,?,55.67475385640137,None,56.16195778679776,None,55.67475385640137,None,55.67475385640137,None,,2,1,23,M,2021_Aug_02_1239,Social Reinforcement Learning,2021.1.4,59.958263061158995,
6,0,6,0,,,,,,,Social,SD,Private,images/Private_trial.png,0.5,7,58.17679277320349,None,59.17576324071251,60.441630722576974,59.925234844815805,60.424496473278396,a,60.424496473278396,None,None,None,57.67945549346041,None,58.17679277320349,None,0.7,0.30000000000000004,-1,60.834546306443826,None,61.3255669342293,None,60.834546306443826,None,60.834546306443826,None,0.36408314324216917,2,1,23,M,2021_Aug_02_1239,Social Reinforcement Learning,2021.1.4,59.958263061158995,
7,0,7,0,,,,,,,Social,SD,Observational,images/Observational_trial.png,-0.5,8,63.32213700288321,None,64.32142747089802,65.58641159334184,65.070748951307,65.57002480201481,None,67.33500722569038,None,66.0719120148733,67.08504191216525,62.824527130117076,None,63.32213700288321,None,0.7,0.30000000000000004,?,67.34526355794742,None,67.834698010387,None,67.34526355794742,None,67.34526355794742,None,,2,1,23,M,2021_Aug_02_1239,Social Reinforcement Learning,2021.1.4,59.958263061158995,
8,0,8,0,,,,,,,Social,SD,Private,images/Private_trial.png,0.5,9,69.84950257699165,None,70.84830948868648,72.11378743907153,71.59793635229471,72.09704706693856,a,72.09704706693856,None,72.71354056460727,None,69.35176154352439,None,69.84950257699165,None,0.7,0.30000000000000004,1,72.7263695429051,None,73.212591743355,None,72.7263695429051,None,72.7263695429051,None,0.5962233619334256,2,1,23,M,2021_Aug_02_1239,Social Reinforcement Learning,2021.1.4,59.958263061158995,
9,0,9,0,,,,,,,Social,SD,Private,images/Private_trial.png,0.5,10,75.22769734747226,None,76.22669072859799,77.49233697554473,76.97632944407633,77.47541487472972,a,77.47541487472972,None,None,None,74.73048451237082,None,75.22769734747226,None,0.7,0.30000000000000004,1,77.83761752117334,None,78.32505927910597,None,77.83761752117334,None,77.83761752117334,None,0.3294053600479856,2,1,23,M,2021_Aug_02_1239,Social Reinforcement Learning,2021.1.4,59.958263061158995,
10,0,10,0,,,,,,,Social,SD,Observational,images/Observational_trial.png,-0.5,11,80.3396445861049,None,81.33871579451397,82.60390218888278,82.08781208938217,82.58727282927066,None,84.35256458676899,None,83.08797722544568,84.10261586586239,79.84811472294678,None,80.3396445861049,None,0.7,0.30000000000000004,?,84.36460462554805,None,84.85197961794302,None,84.36460462554805,None,84.36460462554805,None,,2,1,23,M,2021_Aug_02_1239,Social Reinforcement Learning,2021.1.4,59.958263061158995,
11,0,11,0,,,,,,,Social,SD,Observational,images/Observational_trial.png,-0.5,12,86.85041556608894,None,87.84945714482137,89.11457677365206,88.59860124223405,89.09814099459345,None,90.87946675273774,None,89.61410941488884,90.61299849955321,86.36736295089486,None,86.85041556608894,None,0.7,0.30000000000000004,?,90.88414203913817,None,91.37943645145515,None,90.88414203913817,None,90.88414203913817,None,,2,1,23,M,2021_Aug_02_1239,Social Reinforcement Learning,2021.1.4,59.958263061158995,
12,0,12,0,,,,,,,Social,SD,Observational,images/Observational_trial.png,-0.5,13,93.37725610233065,None,94.38079981163446,95.641857409355,95.12610587829067,95.62518972869475,None,97.39013541157196,None,96.12492187641965,97.12387851674657,92.89485692026801,None,93.37725610233065,None,0.7,0.30000000000000004,?,97.39350106627353,None,97.88969780100388,None,97.39350106627353,None,97.39350106627353,None,,2,1,23,M,2021_Aug_02_1239,Social Reinforcement Learning,2021.1.4,59.958263061158995,
13,0,13,0,,,,,,,Social,SD,Private,images/Private_trial.png,0.5,14,99.90445535518893,None,100.90392044076316,102.16954970002917,101.66099067415826,102.16954970002917,a,102.15267342644711,None,102.66886414832884,None,99.40736854497754,None,99.90445535518893,None,0.7,0.30000000000000004,-1,102.68006546973311,None,103.15143530103387,104.64997278020383,102.68006546973311,None,102.68006546973311,None,0.49535090623339784,2,1,23,M,2021_Aug_02_1239,Social Reinforcement Learning,2021.1.4,59.958263061158995,
14,0,14,0,,,,,,,Social,SD,Private,images/Private_trial.png,0.5,15,105.16600638578802,None,106.16524510063437,107.43085934753071,106.91491502603867,107.41416203719427,a,107.41416203719427,None,112.90925050350693,None,104.68368463594607,None,105.16600638578802,None,0.7,0.30000000000000004,1,112.9211190852252,None,113.40878168301333,None,112.9211190852252,None,112.9211190852252,None,5.465496439303024,2,1,23,M,2021_Aug_02_1239,Social Reinforcement Learning,2021.1.4,59.958263061158995,
15,0,15,0,,,,,,,Social,SD,Observational,images/Observational_trial.png,-0.5,16,115.42424007781165,None,116.4223196797152,117.67107345552358,117.17182407399378,117.67107345552358,None,119.43688472001536,None,118.17083878848598,119.18616404727163,114.92625489581042,None,115.42424007781165,None,0.7,0.30000000000000004,?,119.44465334463757,None,119.93605244215723,None,119.44465334463757,None,119.44465334463757,None,,2,1,23,M,2021_Aug_02_1239,Social Reinforcement Learning,2021.1.4,59.958263061158995,
16,0,16,0,,,,,,,Social,SD,Observational,images/Observational_trial.png,-0.5,17,121.9338942165241,None,122.93327554887992,124.19831102942999,123.6824445352213,124.18169668218752,None,125.94693313095608,None,124.68413145146724,125.69708712626107,121.45103557694529,None,121.9338942165241,None,0.7,0.30000000000000004,?,125.94992505667187,None,126.43964750956638,127.9453328518839,125.94992505667187,None,125.94992505667187,None,,2,1,23,M,2021_Aug_02_1239,Social Reinforcement Learning,2021.1.4,59.958263061158995,
17,0,17,0,,,,,,,Social,SD,Observational,images/Observational_trial.png,-0.5,18,128.44460751740462,None,129.44389838048164,130.70937356542981,130.1930191692154,130.69267941559247,None,132.45760929597515,None,131.1922179827643,132.20770284674018,127.96158571707383,None,128.44460751740462,None,0.7,0.30000000000000004,?,132.46610404520152,None,132.9569141047532,None,132.46610404520152,None,132.46610404520152,None,,2,1,23,M,2021_Aug_02_1239,Social Reinforcement Learning,2021.1.4,59.958263061158995,
18,0,18,0,,,,,,,Social,SD,Observational,images/Observational_trial.png,-0.5,19,134.95564990522462,None,135.9543066932256,137.20307311102943,136.70374629727803,137.20307311102943,None,138.9680563248299,None,137.70245404832258,138.70170896072523,134.4768382843863,None,134.95564990522462,None,0.7,0.30000000000000004,?,138.97172617754268,None,139.4532483211824,140.96657100890252,138.97172617754268,None,138.97172617754268,None,,2,1,23,M,2021_Aug_02_1239,Social Reinforcement Learning,2021.1.4,59.958263061158995,
19,0,19,0,,,,,,,Social,SD,Observational,images/Observational_trial.png,-0.5,20,141.48246278710167,None,142.48105952562491,143.73052243835673,143.23048688274457,143.73052243835673,None,145.49500155259517,None,144.22957823933348,145.24538942481286,140.98437291357686,None,141.48246278710167,None,0.7,0.30000000000000004,?,145.49746211944648,None,145.97816924945255,147.4939251262026,145.49746211944648,None,145.49746211944648,None,,2,1,23,M,2021_Aug_02_1239,Social Reinforcement Learning,2021.1.4,59.958263061158995,
20,0,20,0,,,,,,,Social,SD,Observational,images/Observational_trial.png,-0.5,21,147.9931875447901,None,148.99208887638724,150.25798203730483,149.74138467774355,150.24105045499346,None,152.00589539697063,None,150.74051277513126,151.7393279831358,147.5103853991277,None,147.9931875447901,None,0.7,0.30000000000000004,?,152.01062638716257,None,152.50535309487896,None,152.01062638716257,None,152.01062638716257,None,,2,1,23,M,2021_Aug_02_1239,Social Reinforcement Learning,2021.1.4,59.958263061158995,
21,0,21,0,,,,,,,Social,SD,Observational,images/Observational_trial.png,-0.5,22,154.50734144370017,None,155.50261689302442,156.75154528639268,156.2519597068008,156.75154528639268,None,158.51639536418048,None,157.25555832977125,158.26667893993726,154.02070166234353,None,154.50734144370017,None,0.7,0.30000000000000004,?,158.52090669970448,None,159.0160885192513,None,158.52090669970448,None,158.52090669970448,None,,2,1,23,M,2021_Aug_02_1239,Social Reinforcement Learning,2021.1.4,59.958263061158995,
22,0,22,0,,,,,,,Social,SD,Private,images/Private_trial.png,0.5,23,161.0480909401931,None,162.04677064181033,163.31201985109328,162.79571286236114,163.2955939485928,a,163.2955939485928,None,None,None,160.54656086370142,None,161.0480909401931,None,0.7,0.30000000000000004,1,163.67404946022634,None,164.16123679800376,None,163.67404946022634,None,163.67404946022634,None,0.3428019244274765,2,1,23,M,2021_Aug_02_1239,Social Reinforcement Learning,2021.1.4,59.958263061158995,
23,0,23,0,,,,,,,Social,SD,Private,images/Private_trial.png,0.5,24,166.16156153925795,None,167.158421978741,168.42379760797667,167.90777111351508,168.42379760797667,a,168.42379760797667,None,169.32757649789897,None,165.67672166198008,None,166.16156153925795,None,0.7,0.30000000000000004,-1,169.33613524722614,None,169.8225818430924,None,169.33613524722614,None,169.33613524722614,None,0.8847693981542761,2,1,23,M,2021_Aug_02_1239,Social Reinforcement Learning,2021.1.4,59.958263061158995,
24,0,24,0,,,,,,,Social,SD,Observational,images/Observational_trial.png,-0.5,25,171.8376289779817,None,172.83628063017204,174.08532951755797,173.5858363825564,174.08532951755797,None,175.85061929974432,None,174.58551282648932,175.60067452946123,171.34322780164393,None,171.8376289779817,None,0.7,0.30000000000000004,?,175.87791743670914,None,176.36666369053046,None,175.87791743670914,None,175.87791743670914,None,,2,1,23,M,2021_Aug_02_1239,Social Reinforcement Learning,2021.1.4,59.958263061158995,
25,0,25,0,,,,,,,Social,SD,Private,images/Private_trial.png,0.5,26,178.3657021087638,None,179.38037986035351,180.62954766150733,180.12978390879425,180.62954766150733,a,180.62954766150733,None,None,None,177.88391566840983,None,178.3657021087638,None,0.7,0.30000000000000004,1,180.8726737741017,None,181.36184313970261,182.86071326137426,180.8726737741017,None,180.8726737741017,None,0.21280112640170046,2,1,23,M,2021_Aug_02_1239,Social Reinforcement Learning,2021.1.4,59.958263061158995,
26,0,26,0,,,,,,,Social,SD,Observational,images/Observational_trial.png,-0.5,27,183.37722647265446,None,184.37584651985617,185.64147459393507,185.14162985344,185.64147459393507,None,187.4062405234418,None,186.14100565492254,187.1566027166068,182.88438144692373,None,183.37722647265446,None,0.7,0.30000000000000004,?,187.41689191805153,None,187.90577723382103,None,187.41689191805153,None,187.41689191805153,None,,2,1,23,M,2021_Aug_02_1239,Social Reinforcement Learning,2021.1.4,59.958263061158995,
27,0,27,0,,,,,,,Social,SD,Private,images/Private_trial.png,0.5,28,189.9209393318547,None,190.91957794698737,192.18504641587606,191.66877814325426,192.1685189823511,a,192.1685189823511,None,192.91790869002858,None,189.42850793640764,None,189.9209393318547,None,0.7,0.30000000000000004,1,192.92775613275035,None,193.4176737464477,None,192.92775613275035,None,192.92775613275035,None,0.7226105246190855,2,1,23,M,2021_Aug_02_1239,Social Reinforcement Learning,2021.1.4,59.958263061158995,
28,0,28,0,,,,,,,Social,SD,Private,images/Private_trial.png,0.5,29,195.4156332493958,None,196.4154203107878,197.67998290170135,197.1638552712775,197.6633768507686,a,197.6633768507686,None,198.29631600405497,None,194.93812849482038,None,195.4156332493958,None,0.7,0.30000000000000004,1,198.30131050083628,None,198.7959530602716,None,198.30131050083628,None,198.30131050083628,None,0.6068924158298614,2,1,23,M,2021_Aug_02_1239,Social Reinforcement Learning,2021.1.4,59.958263061158995,
29,0,29,0,,,,,,,Social,SD,Observational,images/Observational_trial.png,-0.5,30,200.81047594741904,None,201.8095779706914,203.07471379707886,202.55890379678613,203.05814843756798,None,204.82328217012497,None,203.55936404442718,204.5886045844618,200.31297590198665,None,200.81047594741904,None,0.7,0.30000000000000004,?,204.83569238232894,None,205.32292752265084,None,204.83569238232894,None,204.83569238232894,None,,2,1,23,M,2021_Aug_02_1239,Social Reinforcement Learning,2021.1.4,59.958263061158995,
30,0,30,0,,,,,,,Social,SD,Observational,images/Observational_trial.png,-0.5,31,207.32297255975936,None,208.3439594571214,209.60229389004462,209.08579529607186,209.58559895008239,None,211.35067302822432,None,210.08662176651342,211.10077922098435,206.84003332746033,None,207.32297255975936,None,0.7,0.30000000000000004,?,211.3534113239093,None,211.8501362570055,None,211.3534113239093,None,211.3534113239093,None,,2,1,23,M,2021_Aug_02_1239,Social Reinforcement Learning,2021.1.4,59.958263061158995,
31,0,31,0,,,,,,,Social,SD,Private,images/Private_trial.png,0.5,32,213.86494556435855,None,214.86401874807916,216.13191171462586,215.61348995712024,216.11286378329123,a,216.11286378329123,None,218.47783846374483,None,213.36744670411326,None,213.86494556435855,None,0.7,0.30000000000000004,1,218.4923385557945,None,218.97698919820505,None,218.4923385557945,None,218.4923385557945,None,2.3377008793299865,2,1,23,M,2021_Aug_02_1239,Social Reinforcement Learning,2021.1.4,59.958263061158995,
32,0,32,0,,,,,,,Social,SD,Observational,images/Observational_trial.png,-0.5,33,220.99163139418306,None,221.99069746678106,223.25621650365065,222.74008808310236,223.2395361809954,None,225.00482082737113,None,223.73894477265367,224.73810368490467,220.49640769802727,None,220.99163139418306,None,0.7,0.30000000000000004,?,225.0139429356136,None,225.50402568537402,None,225.0139429356136,None,225.0139429356136,None,,2,1,23,M,2021_Aug_02_1239,Social Reinforcement Learning,2021.1.4,59.958263061158995,
33,0,33,0,,,,,,,Social,SD,Observational,images/Observational_trial.png,-0.5,34,227.50888890293572,None,228.50152296536953,229.75979655869105,229.25096138423532,229.75979655869105,None,231.5151643498894,None,230.24983545653004,231.24896947985326,227.01938570964649,None,227.50888890293572,None,0.7,0.30000000000000004,?,231.5196598829193,None,232.01465957872142,None,231.5196598829193,None,231.5196598829193,None,,2,1,23,M,2021_Aug_02_1239,Social Reinforcement Learning,2021.1.4,59.958263061158995,
34,0,34,0,,,,,,,Social,SD,Private,images/Private_trial.png,0.5,35,234.02953525654948,None,235.02852784755032,236.27753485832682,235.78005298576272,236.29396115588952,a,236.27753485832682,None,None,None,233.53510603078485,None,234.02953525654948,None,0.7,0.30000000000000004,-1,236.6094421482544,None,237.093234320173,None,236.6094421482544,None,236.6094421482544,None,0.2917318190329752,2,1,23,M,2021_Aug_02_1239,Social Reinforcement Learning,2021.1.4,59.958263061158995,
35,0,35,0,,,,,,,Social,SD,Private,images/Private_trial.png,0.5,36,239.09162483614818,None,240.09615699145797,241.3558765129901,240.83987490745676,241.33959006750047,a,241.33959006750047,None,242.07183762463234,None,238.60873972739137,None,239.09162483614818,None,0.7,0.30000000000000004,1,242.07648209616946,None,242.57151063152287,None,242.07648209616946,None,242.07648209616946,None,0.706516474494947,2,1,23,M,2021_Aug_02_1239,Social Reinforcement Learning,2021.1.4,59.958263061158995,
36,0,36,0,,,,,,,Social,SD,Private,images/Private_trial.png,0.5,37,244.5696226285395,None,245.5687712691697,246.8341966762614,246.31818124354595,246.81744761275695,a,246.81744761275695,None,247.5000314864697,None,244.08666285299796,None,244.5696226285395,None,0.7,0.30000000000000004,-1,247.5051697859476,None,247.99970844398376,None,247.5051697859476,None,247.5051697859476,None,0.6641152223055542,2,1,23,M,2021_Aug_02_1239,Social Reinforcement Learning,2021.1.4,59.958263061158995,
37,0,37,0,,,,,,,Social,SD,Private,images/Private_trial.png,0.5,38,249.99813728100708,None,250.99711723001246,252.24577540073142,251.74603219126084,252.24577540073142,a,252.24577540073142,None,252.77842758072535,None,249.51492624580942,None,249.99813728100708,None,0.7,0.30000000000000004,-1,252.78305783001724,None,253.27818987170758,None,252.78305783001724,None,252.78305783001724,None,0.5060037625739824,2,1,23,M,2021_Aug_02_1239,Social Reinforcement Learning,2021.1.4,59.958263061158995,
38,0,38,0,,,,,,,Social,SD,Observational,images/Observational_trial.png,-0.5,39,255.29291542584178,None,256.29210791839296,257.5574562883262,257.0413614480776,257.54106475625076,None,259.3059764637656,None,258.0406017431733,259.0565614720972,254.79673251829354,None,255.29291542584178,None,0.7,0.30000000000000004,?,259.3163280060494,None,259.80520542057184,261.30398270259,259.3163280060494,None,259.3163280060494,None,,2,1,23,M,2021_Aug_02_1239,Social Reinforcement Learning,2021.1.4,59.958263061158995,
39,0,39,0,,,,,,,Social,SD,Private,images/Private_trial.png,0.5,40,261.82013048119416,None,262.81920998591204,264.084750356149,263.56857926886596,264.068144700278,a,264.068144700278,None,None,None,261.3222930525126,None,261.82013048119416,None,0.7,0.30000000000000004,-1,264.29492984877834,None,264.78438247408576,None,264.29492984877834,None,264.29492984877834,None,0.20136446635387983,2,1,23,M,2021_Aug_02_1239,Social Reinforcement Learning,2021.1.4,59.958263061158995,
40,0,40,0,,,,,,,Private,PL,Private,images/Private_trial.png,0.5,41,266.78271768133163,None,267.7812251357632,269.0300733314739,268.53066236944187,269.0300733314739,a,269.0300733314739,None,None,None,266.2992794852812,None,266.78271768133163,None,0.7,0.30000000000000004,1,269.27049800770055,None,269.7628128597539,None,269.27049800770055,None,269.27049800770055,None,0.2131661640155471,2,1,23,M,2021_Aug_02_1239,Social Reinforcement Learning,2021.1.4,59.958263061158995,
41,0,41,0,,,,,,,Private,PL,Private,images/Private_trial.png,0.5,42,271.7611765114889,None,272.7603705842894,274.0252835955098,273.50946016309763,274.00853097644404,a,274.00853097644404,None,None,None,271.2779836491595,None,271.7611765114889,None,0.7,0.30000000000000004,-1,274.3990133712805,None,274.8913673345064,None,274.3990133712805,None,274.3990133712805,None,0.36735188914872197,2,1,23,M,2021_Aug_02_1239,Social Reinforcement Learning,2021.1.4,59.958263061158995,
42,0,42,0,,,,,,,Private,PL,Private,images/Private_trial.png,0.5,43,276.88967607257473,None,277.8923806694411,279.1539514531578,278.63757453838934,279.137320908359,a,279.137320908359,None,279.8534590079353,None,276.4067368402757,None,276.88967607257473,None,0.7,0.30000000000000004,1,279.8611636324563,None,280.3529498910816,None,279.8611636324563,None,279.8611636324563,None,0.6991398702457445,2,1,23,M,2021_Aug_02_1239,Social Reinforcement Learning,2021.1.4,59.958263061158995,
43,0,43,0,,,,,,,Private,PL,Private,images/Private_trial.png,0.5,44,282.3514656418224,None,283.3503685536689,284.6156442321294,284.0993984780621,284.59902040339057,a,284.59902040339057,None,285.3484630494232,None,281.86809184093545,None,282.3514656418224,None,0.7,0.30000000000000004,1,285.3528878662919,None,285.8477405988988,None,285.3528878662919,None,285.3528878662919,None,0.7314263410194144,2,1,23,M,2021_Aug_02_1239,Social Reinforcement Learning,2021.1.4,59.958263061158995,
44,0,44,0,,,,,,,Private,PL,Private,images/Private_trial.png,0.5,45,287.8456459783047,None,288.8449206438254,290.1104072855819,289.59425950697823,290.093765679037,a,290.093765679037,None,292.0250950322489,None,287.36310141329614,None,287.8456459783047,None,0.7,0.30000000000000004,-1,292.03195856902084,None,292.52508448408435,None,292.03195856902084,None,292.03195856902084,None,1.9021738701017057,2,1,23,M,2021_Aug_02_1239,Social Reinforcement Learning,2021.1.4,59.958263061158995,
45,0,45,0,,,,,,,Private,PL,Private,images/Private_trial.png,0.5,46,294.5233742591595,None,295.521993911299,296.78760302238516,296.2717116392482,296.77096576152644,a,296.77096576152644,None,None,None,294.04003917438285,None,294.5233742591595,None,0.7,0.30000000000000004,-1,297.2304454011978,None,297.72008844655966,None,297.2304454011978,None,297.2304454011978,None,0.4283981090738962,2,1,23,M,2021_Aug_02_1239,Social Reinforcement Learning,2021.1.4,59.958263061158995,
46,0,46,0,,,,,,,Private,PL,Private,images/Private_trial.png,0.5,47,299.7183596537043,None,300.7170405405086,301.9828791828213,301.4664635519425,301.9664544655084,a,301.9664544655084,None,None,None,299.23552432280394,None,299.7183596537043,None,0.7,0.30000000000000004,-1,302.343243604138,None,302.83184328982634,304.34784173486105,302.343243604138,None,302.343243604138,None,0.3282999755851961,2,1,23,M,2021_Aug_02_1239,Social Reinforcement Learning,2021.1.4,59.958263061158995,
47,0,47,0,,,,,,,Private,PL,Private,images/Private_trial.png,0.5,48,304.863236919683,None,305.86251672101434,307.1279330416719,306.61195000406906,307.1111760769204,a,307.1111760769204,None,None,None,304.3667549499337,None,304.863236919683,None,0.7,0.30000000000000004,1,307.5820465494071,None,308.0772532578817,None,307.5820465494071,None,307.5820465494071,None,0.44798253508361086,2,1,23,M,2021_Aug_02_1239,Social Reinforcement Learning,2021.1.4,59.958263061158995,
48,0,48,0,,,,,,,Private,PL,Private,images/Private_trial.png,0.5,49,310.07562007011575,None,311.07427883342825,312.33969278371205,311.8238574994293,312.3233549801166,a,312.3233549801166,None,312.8392075286243,None,309.5925765413558,None,310.07562007011575,None,0.7,0.30000000000000004,1,312.84242582506795,None,313.3387209303246,None,312.84242582506795,None,312.84242582506795,None,0.4882417591970807,2,1,23,M,2021_Aug_02_1239,Social Reinforcement Learning,2021.1.4,59.958263061158995,
49,0,49,0,,,,,,,Private,PL,Private,images/Private_trial.png,0.5,50,315.3535322129892,None,316.3528550761166,317.60157487656306,317.10196638335447,317.60157487656306,a,317.60157487656306,None,None,None,314.8570419469306,None,315.3535322129892,None,0.7,0.30000000000000004,1,317.88904910862084,None,318.3840689526028,None,317.88904910862084,None,317.88904910862084,None,0.262178389615201,2,1,23,M,2021_Aug_02_1239,Social Reinforcement Learning,2021.1.4,59.958263061158995,
50,0,50,0,,,,,,,Private,PL,Private,images/Private_trial.png,0.5,51,320.38213907300997,None,321.38126677533546,322.63036109489167,322.13080593510085,322.63036109489167,a,322.63036109489167,None,None,None,319.89956408820035,None,320.38213907300997,None,0.7,0.30000000000000004,1,322.9344164889544,None,323.429238406698,None,322.9344164889544,None,322.9344164889544,None,0.27909653980668736,2,1,23,M,2021_Aug_02_1239,Social Reinforcement Learning,2021.1.4,59.958263061158995,
51,0,51,0,,,,,,,Private,PL,Private,images/Private_trial.png,0.5,52,325.4279532688647,None,326.4270473908896,327.69210025418306,327.1759224508405,327.6754136105301,a,327.6754136105301,None,328.37511079523716,None,324.9445873692248,None,325.4279532688647,None,0.7,0.30000000000000004,-1,328.3905965678564,None,328.8743658261583,None,328.3905965678564,None,328.3905965678564,None,0.6739708428181075,2,1,23,M,2021_Aug_02_1239,Social Reinforcement Learning,2021.1.4,59.958263061158995,
52,0,52,0,,,,,,,Private,PL,Private,images/Private_trial.png,0.5,53,330.8891905409432,None,331.88842293479183,333.1371360191779,332.6373671306542,333.1371360191779,a,333.1371360191779,None,None,None,330.39243005223534,None,330.8891905409432,None,0.7,0.30000000000000004,-1,333.4562669926195,None,333.9362586647053,335.4514318244851,333.4562669926195,None,333.4562669926195,None,0.29397853863292767,2,1,23,M,2021_Aug_02_1239,Social Reinforcement Learning,2021.1.4,59.958263061158995,
53,0,53,0,,,,,,,Private,PL,Private,images/Private_trial.png,0.5,54,335.9512619476732,None,336.9502521682998,338.19882105492707,337.6995625869631,338.19882105492707,a,338.19882105492707,None,None,None,335.4681753571167,None,335.9512619476732,None,0.7,0.30000000000000004,1,338.63659399362996,None,339.13164346728854,None,338.63659399362996,None,338.63659399362996,None,0.41431808682364135,2,1,23,M,2021_Aug_02_1239,Social Reinforcement Learning,2021.1.4,59.958263061158995,
54,0,54,0,,,,,,,Private,PL,Private,images/Private_trial.png,0.5,55,341.13005492156844,None,342.12855684512715,343.39392852373885,342.89414857346947,343.39392852373885,a,343.39392852373885,None,344.7928750109632,None,340.64653178711205,None,341.13005492156844,None,0.7,0.30000000000000004,-1,344.80091978416976,None,345.29259977102174,None,344.80091978416976,None,344.80091978416976,None,1.3816405043207851,2,1,23,M,2021_Aug_02_1239,Social Reinforcement Learning,2021.1.4,59.958263061158995,
55,0,55,0,,,,,,,Private,PL,Private,images/Private_trial.png,0.5,56,347.29056599003025,None,348.28955581559467,349.5549875436841,349.0389215429873,349.5383668754439,a,349.5383668754439,None,353.71781355901436,None,346.8075007328407,None,347.29056599003025,None,0.7,0.30000000000000004,1,353.72550198597855,None,354.21721476300627,None,353.72550198597855,None,353.72550198597855,None,4.160894674006613,2,1,23,M,2021_Aug_02_1239,Social Reinforcement Learning,2021.1.4,59.958263061158995,
56,0,56,0,,,,,,,Private,PL,Private,images/Private_trial.png,0.5,57,356.21553179738385,None,357.214445770976,358.4797901902857,357.9637068068455,358.4631150034411,a,358.4631150034411,None,360.9610530545038,None,355.7325348859813,None,356.21553179738385,None,0.7,0.30000000000000004,1,360.9655679455891,None,361.46041554238536,None,360.9655679455891,None,360.9655679455891,None,2.4758127025188514,2,1,23,M,2021_Aug_02_1239,Social Reinforcement Learning,2021.1.4,59.958263061158995,
57,0,57,0,,,,,,,Private,PL,Private,images/Private_trial.png,0.5,58,363.47559739353665,None,364.4744754164549,365.72350218034944,365.22367798309597,365.72350218034944,a,365.72350218034944,None,366.3064829337014,None,362.97844776841157,None,363.47559739353665,None,0.7,0.30000000000000004,1,366.3100006874088,None,366.805601273049,None,366.3100006874088,None,366.3100006874088,None,0.5572141151037613,2,1,23,M,2021_Aug_02_1239,Social Reinforcement Learning,2021.1.4,59.958263061158995,
58,0,58,0,,,,,,,Private,PL,Private,images/Private_trial.png,0.5,59,368.80432917227336,None,369.80280699702826,371.05190684745776,370.55209963788593,371.05190684745776,a,371.05190684745776,None,None,None,368.32079853163214,None,368.80432917227336,None,0.7,0.30000000000000004,1,371.33746068141954,None,371.81744642756985,373.33290719274237,371.33746068141954,None,371.33746068141954,None,0.2591597181785801,2,1,23,M,2021_Aug_02_1239,Social Reinforcement Learning,2021.1.4,59.958263061158995,
59,0,59,0,,,,,,,Private,PL,Private,images/Private_trial.png,0.5,60,373.83274205667885,None,374.8316587957079,376.09704785706344,375.59583264526646,376.09704785706344,a,376.080350546727,None,None,None,373.3499233183975,None,373.83274205667885,None,0.7,0.30000000000000004,1,376.43319140059884,None,376.92951178984595,None,376.43319140059884,None,376.43319140059884,None,0.32054016085339754,2,1,23,M,2021_Aug_02_1239,Social Reinforcement Learning,2021.1.4,59.958263061158995,
60,0,60,0,,,,,,,Social,UD,Observational,images/Observational_trial.png,-0.5,61,378.945497197823,None,379.943333441317,381.2087675397811,380.6924822794781,381.19538717295745,None,382.95727072753886,None,381.6917569449988,382.7074658093288,378.4464251992895,None,378.945497197823,None,0.7,0.30000000000000004,?,382.96778977626036,None,383.4571780064048,None,382.96778977626036,None,382.96778977626036,None,,2,1,23,M,2021_Aug_02_1239,Social Reinforcement Learning,2021.1.4,59.958263061158995,
61,0,61,0,,,,,,,Social,UD,Private,images/Private_trial.png,0.5,62,385.4735557112981,None,386.4705852374682,387.7360849162824,387.22002958226904,387.71940340844003,a,387.71940340844003,None,None,None,384.9741095887166,None,385.4735557112981,None,0.7,0.30000000000000004,1,388.12945008110637,None,388.61897539788697,None,388.12945008110637,None,388.12945008110637,None,0.3746866167884946,2,1,23,M,2021_Aug_02_1239,Social Reinforcement Learning,2021.1.4,59.958263061158995,
62,0,62,0,,,,,,,Social,UD,Observational,images/Observational_trial.png,-0.5,63,390.63339477869795,None,391.6324027771302,392.8812312197233,392.3817203069161,392.8812312197233,None,394.6463930017076,None,393.3828940371659,394.3965667501302,390.13689819164165,None,390.63339477869795,None,0.7,0.30000000000000004,?,394.6568776800045,None,395.1461304037616,None,394.6568776800045,None,394.6568776800045,None,,2,1,23,M,2021_Aug_02_1239,Social Reinforcement Learning,2021.1.4,59.958263061158995,
63,0,63,0,,,,,,,Social,UD,Observational,images/Observational_trial.png,-0.5,64,397.1612605017449,None,398.159994721967,399.4253778573875,398.9089341770814,399.4085940283958,None,401.17353971127255,None,399.90840676884045,400.9235119778955,396.6687224394627,None,397.1612605017449,None,0.7,0.30000000000000004,?,401.17739168773005,None,401.6730096561141,None,401.17739168773005,None,401.17739168773005,None,,2,1,23,M,2021_Aug_02_1239,Social Reinforcement Learning,2021.1.4,59.958263061158995,
64,0,64,0,,,,,,,Social,UD,Observational,images/Observational_trial.png,-0.5,65,403.67167118486304,None,404.67033073830044,405.91923542792756,405.43999042368887,405.95244120879624,None,407.7009404459305,None,406.4357577256419,407.4509759225298,403.1894817809098,None,403.67167118486304,None,0.7,0.30000000000000004,?,407.70536131217614,None,408.2006134528215,None,407.70536131217614,None,407.70536131217614,None,,2,1,23,M,2021_Aug_02_1239,Social Reinforcement Learning,2021.1.4,59.958263061158995,
65,0,65,0,,,,,,,Social,UD,Observational,images/Observational_trial.png,-0.5,66,410.1988238203635,None,411.19753670721866,412.4630150526659,411.9472161141193,412.44632682876363,None,414.2281009826784,None,412.96251569385186,413.9617567790724,409.71631441590444,None,410.1988238203635,None,0.7,0.30000000000000004,?,414.23278654069964,None,414.7276527054264,416.22803907640764,414.23278654069964,None,414.23278654069964,None,,2,1,23,M,2021_Aug_02_1239,Social Reinforcement Learning,2021.1.4,59.958263061158995,
66,0,66,0,,,,,,,Social,UD,Observational,images/Observational_trial.png,-0.5,67,416.7424205312327,None,417.7417358881753,419.0072699374141,418.4905647258306,418.9903703551531,None,420.75570873000885,None,419.4898200332959,420.505964651401,416.24773372481377,None,416.7424205312327,None,0.7,0.30000000000000004,?,420.7717456146106,None,421.2549305756929,422.77005395761626,420.7717456146106,None,420.7717456146106,None,,2,1,23,M,2021_Aug_02_1239,Social Reinforcement Learning,2021.1.4,59.958263061158995,
67,0,67,0,,,,,,,Social,UD,Observational,images/Observational_trial.png,-0.5,68,423.26975292010366,None,424.26939222817555,425.5349582774652,425.01794847280735,425.5178374602865,None,427.2824576117851,None,426.01725000256783,427.0327743727794,422.7866584282997,None,423.26975292010366,None,0.7,0.30000000000000004,?,427.2869614411243,None,427.7823194584803,None,427.2869614411243,None,427.2869614411243,None,,2,1,23,M,2021_Aug_02_1239,Social Reinforcement Learning,2021.1.4,59.958263061158995,
68,0,68,0,,,,,,,Social,UD,Private,images/Private_trial.png,0.5,69,429.79845064446545,None,430.795972418327,432.0612204424224,431.54505646626194,432.04474199662945,a,432.04474199662945,None,None,None,429.2993920780518,None,429.79845064446545,None,0.7,0.30000000000000004,1,432.4381845936746,None,432.92729865054616,434.4257255122575,432.4381845936746,None,432.4381845936746,None,0.3533733979234057,2,1,23,M,2021_Aug_02_1239,Social Reinforcement Learning,2021.1.4,59.958263061158995,
69,0,69,0,,,,,,,Social,UD,Observational,images/Observational_trial.png,-0.5,70,434.95874561382016,None,435.95776585918566,437.22328489605525,436.707154500195,437.2067997342019,None,438.9718651209724,None,437.706154202318,438.70532970718796,434.45806176088763,None,434.95874561382016,None,0.7,0.30000000000000004,?,438.9811547356521,None,439.4712149668585,440.9848232846589,438.9811547356521,None,438.9811547356521,None,,2,1,23,M,2021_Aug_02_1239,Social Reinforcement Learning,2021.1.4,59.958263061158995,
70,0,70,0,,,,,,,Social,UD,Private,images/Private_trial.png,0.5,71,441.5054506752804,None,442.5018769412377,443.7672731137154,443.2524598557393,443.7672731137154,a,443.7509918040364,None,445.99839711351666,None,441.01030559653236,None,441.5054506752804,None,0.7,0.30000000000000004,1,446.00909591560867,None,446.4980333796084,None,446.00909591560867,None,446.00909591560867,None,2.2210575345106918,2,1,23,M,2021_Aug_02_1239,Social Reinforcement Learning,2021.1.4,59.958263061158995,
71,0,71,0,,,,,,,Social,UD,Private,images/Private_trial.png,0.5,72,448.4964582660082,None,449.4952462147103,450.7606238192575,450.2444535220993,450.74405253381155,a,450.74405253381155,None,452.09293395426636,None,448.0134218483704,None,448.4964582660082,None,0.7,0.30000000000000004,1,452.09812163653805,None,452.59218582468884,None,452.09812163653805,None,452.09812163653805,None,1.3267951830835045,2,1,23,M,2021_Aug_02_1239,Social Reinforcement Learning,2021.1.4,59.958263061158995,
72,0,72,0,,,,,,,Social,UD,Observational,images/Observational_trial.png,-0.5,73,454.60739295983103,None,455.60661547712107,456.8716019699391,456.35524006753985,456.85494890658583,None,458.6198858980916,None,457.35450525156375,458.3728148113619,454.115707837168,None,454.60739295983103,None,0.7,0.30000000000000004,?,458.6307952684174,None,459.1194834480725,None,458.6307952684174,None,458.6307952684174,None,,2,1,23,M,2021_Aug_02_1239,Social Reinforcement Learning,2021.1.4,59.958263061158995,
73,0,73,0,,,,,,,Social,UD,Private,images/Private_trial.png,0.5,74,461.13456100276335,None,462.1331905314619,463.3821592211898,462.88270954304744,463.3821592211898,a,463.3821592211898,None,463.9985334100284,None,460.64059518513795,None,461.13456100276335,None,0.7,0.30000000000000004,1,464.0162058527699,None,464.5023269172575,None,464.0162058527699,None,464.0162058527699,None,0.5889960912531933,2,1,23,M,2021_Aug_02_1239,Social Reinforcement Learning,2021.1.4,59.958263061158995,
74,0,74,0,,,,,,,Social,UD,Private,images/Private_trial.png,0.5,75,466.49637727822574,None,467.49532522718073,468.760786980009,468.24444759616426,468.74411850922434,a,468.74411850922434,None,469.6771328033706,None,466.0129829340967,None,466.49637727822574,None,0.7,0.30000000000000004,-1,469.7010128608599,None,470.19259921793446,None,469.7010128608599,None,469.7010128608599,None,0.9099107712168006,2,1,23,M,2021_Aug_02_1239,Social Reinforcement Learning,2021.1.4,59.958263061158995,
75,0,75,0,,,,,,,Social,UD,Private,images/Private_trial.png,0.5,76,472.19039990581723,None,473.1901632634681,474.4550296573311,473.938708051292,474.4382130381641,a,474.4382130381641,None,None,None,471.7076807232488,None,472.19039990581723,None,0.7,0.30000000000000004,1,474.8630982527975,None,475.3544029304144,None,474.8630982527975,None,474.8630982527975,None,0.3929282258618514,2,1,23,M,2021_Aug_02_1239,Social Reinforcement Learning,2021.1.4,59.958263061158995,
76,0,76,0,,,,,,,Social,UD,Observational,images/Observational_trial.png,-0.5,77,477.37229253893156,None,478.3806844534274,479.6337400631942,479.1177680873375,479.61716956787313,None,481.3822254731468,None,480.11668680167804,481.13278203698883,476.87238063783616,None,477.37229253893156,None,0.7,0.30000000000000004,?,481.3933813623803,None,481.88152514611374,None,481.3933813623803,None,481.3933813623803,None,,2,1,23,M,2021_Aug_02_1239,Social Reinforcement Learning,2021.1.4,59.958263061158995,
77,0,77,0,,,,,,,Social,UD,Observational,images/Observational_trial.png,-0.5,78,483.8797730445799,None,484.8788600554826,486.14437119110517,485.6286283514128,486.12791012805565,None,487.9093745530859,None,486.6438564248597,487.6429284233932,483.3972272943838,None,483.8797730445799,None,0.7,0.30000000000000004,?,487.9138305798806,None,488.4091455354401,None,487.9138305798806,None,487.9138305798806,None,,2,1,23,M,2021_Aug_02_1239,Social Reinforcement Learning,2021.1.4,59.958263061158995,
78,0,78,0,,,,,,,Social,UD,Private,images/Private_trial.png,0.5,79,490.4237134596956,None,491.4229253103017,492.6882491863694,492.17199987674076,492.6714325672024,a,492.6714325672024,None,None,None,489.9257669938047,None,490.4237134596956,None,0.7,0.30000000000000004,1,493.1477185544195,None,493.63777009425394,None,493.1477185544195,None,493.1477185544195,None,0.4465543846786204,2,1,23,M,2021_Aug_02_1239,Social Reinforcement Learning,2021.1.4,59.958263061158995,
79,0,79,0,,,,,,,Social,UD,Private,images/Private_trial.png,0.5,80,495.63564623904585,None,496.63502322571594,497.90011243474555,497.38401443399835,497.88356485304075,a,497.88356485304075,None,498.5994647300186,None,495.1531324889006,None,495.63564623904585,None,0.7,0.30000000000000004,-1,498.6039077197556,None,499.09922820618795,None,498.6039077197556,None,498.6039077197556,None,0.695167518289054,2,1,23,M,2021_Aug_02_1239,Social Reinforcement Learning,2021.1.4,59.958263061158995,
80,0,80,0,,,,,,,Social,UD,Observational,images/Observational_trial.png,-0.5,81,501.1136294141306,None,502.11307711696145,503.36151365770047,502.8618593372594,503.36151365770047,None,505.12666674831286,None,503.8611822003868,504.8602889644071,500.6166401843202,None,501.1136294141306,None,0.7,0.30000000000000004,?,505.1371004635662,None,505.62642824917066,None,505.1371004635662,None,505.1371004635662,None,,2,1,23,M,2021_Aug_02_1239,Social Reinforcement Learning,2021.1.4,59.958263061158995,
81,0,81,0,,,,,,,Social,UD,Private,images/Private_trial.png,0.5,82,507.64131261837065,None,508.6401207152526,509.9063449384216,509.4050218746024,509.92516373359194,a,509.9063449384216,None,510.8880170872372,None,507.1436276837576,None,507.64131261837065,None,0.7,0.30000000000000004,-1,510.8993539150283,None,511.38742382210194,512.8871575500762,510.8993539150283,None,510.8993539150283,None,0.9626069532555448,2,1,23,M,2021_Aug_02_1239,Social Reinforcement Learning,2021.1.4,59.958263061158995,
82,0,82,0,,,,,,,Social,UD,Private,images/Private_trial.png,0.5,83,513.3855460907398,None,514.384903719354,515.6501106569649,515.1338961128235,515.6334429763051,a,515.6334429763051,None,517.1487748326317,None,512.9035648846457,None,513.3855460907398,None,0.7,0.30000000000000004,-1,517.1531376247112,None,517.6482574194688,None,517.1531376247112,None,517.1531376247112,None,1.4909890227972937,2,1,23,M,2021_Aug_02_1239,Social Reinforcement Learning,2021.1.4,59.958263061158995,
83,0,83,0,,,,,,,Social,UD,Observational,images/Observational_trial.png,-0.5,84,519.6633282580992,None,520.6629000105086,521.9274776137918,521.4118252433782,521.9109213407155,None,523.6764608023086,None,522.4108360072473,523.4261920808963,519.1661359662398,None,519.6633282580992,None,0.7,0.30000000000000004,?,523.6857646392332,None,524.1756621047502,None,523.6857646392332,None,523.6857646392332,None,,2,1,23,M,2021_Aug_02_1239,Social Reinforcement Learning,2021.1.4,59.958263061158995,
84,0,84,0,,,,,,,Social,UD,Private,images/Private_trial.png,0.5,85,526.1980242141617,None,527.1893928918803,528.4562033875809,527.9388467181775,528.4426069216506,a,528.4426069216506,None,None,None,525.6926695390334,None,526.1980242141617,None,0.7,0.30000000000000004,1,528.9285577142641,None,529.4204526150365,None,528.9285577142641,None,528.9285577142641,None,0.4476668802635686,2,1,23,M,2021_Aug_02_1239,Social Reinforcement Learning,2021.1.4,59.958263061158995,
85,0,85,0,,,,,,,Social,UD,Private,images/Private_trial.png,0.5,86,531.4185472293093,None,532.4179672777755,533.6664449049995,533.1674029312048,533.6664449049995,a,533.6664449049995,None,534.5492534901782,None,530.9358414788608,None,531.4185472293093,None,0.7,0.30000000000000004,1,534.5526254658776,None,535.0323623227455,536.5475813097582,534.5526254658776,None,534.5526254658776,None,0.8649309470511071,2,1,23,M,2021_Aug_02_1239,Social Reinforcement Learning,2021.1.4,59.958263061158995,
86,0,86,0,,,,,,,Social,UD,Private,images/Private_trial.png,0.5,87,537.0471581979787,None,538.0461606655381,539.3113628624005,538.7950527131698,539.2947267867289,a,539.2947267867289,None,None,None,536.5641830150053,None,537.0471581979787,None,0.7,0.30000000000000004,1,539.581295140812,None,540.0606495773227,541.5760005151615,539.581295140812,None,539.581295140812,None,0.25744356731820517,2,1,23,M,2021_Aug_02_1239,Social Reinforcement Learning,2021.1.4,59.958263061158995,
87,0,87,0,,,,,,,Social,UD,Observational,images/Observational_trial.png,-0.5,88,542.0760933548145,None,543.0915027618812,544.3570166629402,543.8406338222362,544.340112734993,None,546.105112936475,None,544.8395995489968,545.8385135225894,541.5949749648989,None,542.0760933548145,None,0.7,0.30000000000000004,?,546.1160732698445,None,546.6046721654079,None,546.1160732698445,None,546.1160732698445,None,,2,1,23,M,2021_Aug_02_1239,Social Reinforcement Learning,2021.1.4,59.958263061158995,
88,0,88,0,,,,,,,Social,UD,Observational,images/Observational_trial.png,-0.5,89,548.6026806560881,None,549.6017972966674,550.8505834675889,550.3526634708755,550.8673147532877,None,552.615663866728,None,551.3516651483105,552.3659881339072,548.1201487330745,None,548.6026806560881,None,0.7,0.30000000000000004,?,552.6202202393606,None,553.1152629969588,None,552.6202202393606,None,552.6202202393606,None,,2,1,23,M,2021_Aug_02_1239,Social Reinforcement Learning,2021.1.4,59.958263061158995,
89,0,89,0,,,,,,,Social,UD,Private,images/Private_trial.png,0.5,90,555.129988551093,None,556.1292837598558,557.3783468694864,556.8785724500899,557.3783468694864,a,557.3783468694864,None,None,None,554.6321226779223,None,555.129988551093,None,0.7,0.30000000000000004,-1,557.8191001585783,None,558.3104135275671,None,557.8191001585783,None,557.8191001585783,None,0.4164127074177486,2,1,23,M,2021_Aug_02_1239,Social Reinforcement Learning,2021.1.4,59.958263061158995,
90,0,90,0,,,,,,,Social,UD,Private,images/Private_trial.png,0.5,91,560.3087846854869,None,561.3161624749237,562.5733480665253,562.0569679912583,562.5566120400786,a,562.5566120400786,None,563.7220513928714,None,559.8258217494467,None,560.3087846854869,None,0.7,0.30000000000000004,1,563.7338670362346,None,564.2048433854316,565.7201966936441,563.7338670362346,None,563.7338670362346,None,1.1501726817546114,2,1,23,M,2021_Aug_02_1239,Social Reinforcement Learning,2021.1.4,59.958263061158995,
91,0,91,0,,,,,,,Social,UD,Private,images/Private_trial.png,0.5,92,566.220548299138,None,567.2187906667309,568.4673737756029,567.9680876532743,568.4673737756029,a,568.4673737756029,None,569.8661638181356,None,565.7366439295115,None,566.220548299138,None,0.7,0.30000000000000004,1,569.8701449799823,None,570.3660991464285,None,569.8701449799823,None,569.8701449799823,None,1.374505678231344,2,1,23,M,2021_Aug_02_1239,Social Reinforcement Learning,2021.1.4,59.958263061158995,
92,0,92,0,,,,,,,Social,UD,Private,images/Private_trial.png,0.5,93,572.3639476368558,None,573.3632945987865,574.6284122523057,574.1123762763477,574.6118401767353,a,574.6118401767353,None,575.2448571573054,None,571.8808377376204,None,572.3639476368558,None,0.7,0.30000000000000004,1,575.2490488873859,None,575.7462937225382,None,575.2490488873859,None,575.2490488873859,None,0.6037263861358042,2,1,23,M,2021_Aug_02_1239,Social Reinforcement Learning,2021.1.4,59.958263061158995,
93,0,93,0,,,,,,,Social,UD,Observational,images/Observational_trial.png,-0.5,94,577.7592794220714,None,578.758168901798,580.0236294694391,579.5074323080412,580.0067630724157,None,581.7718719160448,None,580.5062980840266,581.5071036161639,577.2623715751056,None,577.7592794220714,None,0.7,0.30000000000000004,?,581.780691406525,None,582.2714449721602,583.7705059089476,581.780691406525,None,581.780691406525,None,,2,1,23,M,2021_Aug_02_1239,Social Reinforcement Learning,2021.1.4,59.958263061158995,
94,0,94,0,,,,,,,Social,UD,Observational,images/Observational_trial.png,-0.5,95,584.2694455615929,None,585.268427090848,586.5173136076069,586.0175407684596,586.5173136076069,None,588.283257613049,None,587.0173325705996,588.0326748170664,583.7870720585829,None,584.2694455615929,None,0.7,0.30000000000000004,?,588.3030021578306,None,588.7821721002229,590.297795236022,588.3030021578306,None,588.3030021578306,None,,2,1,23,M,2021_Aug_02_1239,Social Reinforcement Learning,2021.1.4,59.958263061158995,
95,0,95,0,,,,,,,Social,UD,Observational,images/Observational_trial.png,-0.5,96,590.7973685686811,None,591.7958274304433,593.0449774537915,592.5497822021252,593.0613045907035,None,594.8096774078854,None,593.5440771066897,594.5432083645765,590.3138695330285,None,590.7973685686811,None,0.7,0.30000000000000004,?,594.8123706664624,None,595.2927408082819,596.807808091351,594.8123706664624,None,594.8123706664624,None,,2,1,23,M,2021_Aug_02_1239,Social Reinforcement Learning,2021.1.4,59.958263061158995,
96,0,96,0,,,,,,,Social,UD,Observational,images/Observational_trial.png,-0.5,97,597.3073936709434,None,598.3066738673365,599.5556259644459,599.0586122407699,599.5721273238555,None,601.3202666591869,None,600.0547406297137,601.0537762825106,596.8246096981488,None,597.3073936709434,None,0.7,0.30000000000000004,?,601.3233004615117,None,601.8031297629705,603.3018513411971,601.3233004615117,None,601.3233004615117,None,,2,1,23,M,2021_Aug_02_1239,Social Reinforcement Learning,2021.1.4,59.958263061158995,
97,0,97,0,,,,,,,Social,UD,Private,images/Private_trial.png,0.5,98,603.8346837881422,None,604.8341382070334,606.0992357123728,605.5826146490704,606.0826798343583,a,606.0826798343583,None,None,None,603.337667694092,None,603.8346837881422,None,0.7,0.30000000000000004,1,606.5062238123046,None,606.9983861702895,None,606.5062238123046,None,606.5062238123046,None,0.38842056441762907,2,1,23,M,2021_Aug_02_1239,Social Reinforcement Learning,2021.1.4,59.958263061158995,
98,0,98,0,,,,,,,Social,UD,Private,images/Private_trial.png,0.5,99,608.9965139698002,None,609.9957001413536,611.2610544372219,610.7447466583653,611.2442958922206,a,611.2442958922206,None,611.9936184392982,None,608.5134637249798,None,608.9965139698002,None,0.7,0.30000000000000004,1,611.9981704662446,None,612.4935249280393,None,611.9981704662446,None,611.9981704662446,None,0.7243215396688356,2,1,23,M,2021_Aug_02_1239,Social Reinforcement Learning,2021.1.4,59.958263061158995,
99,0,99,0,,,,,,,Social,UD,Observational,images/Observational_trial.png,-0.5,100,614.5081446054633,None,615.5069981345155,616.756143022053,616.2563654421579,616.756143022053,None,618.5209030256246,None,617.2556934410959,618.2713537127565,614.0111067829835,None,614.5081446054633,None,0.7,0.30000000000000004,?,618.5301381217,None,619.020451587874,None,618.5301381217,None,618.5301381217,None,,2,1,23,M,2021_Aug_02_1239,Social Reinforcement Learning,2021.1.4,59.958263061158995,
