trials.thisRepN,trials.thisTrialN,trials.thisN,trials.thisIndex,textbox.started,textbox.stopped,key_resp_2.keys,key_resp_2.rt,key_resp_2.started,key_resp_2.stopped,block_type,learning_type,trial_type,image_path,x_image,trial,person.started,person.stopped,text.started,text.stopped,text_2.started,text_2.stopped,key_resp.keys,key_resp.started,key_resp.stopped,text_4.started,text_4.stopped,line.started,line.stopped,text_5.started,text_5.stopped,reward_a,reward_d,reward,image.started,image.stopped,text_3.started,text_3.stopped,line_2.started,line_2.stopped,text_6.started,text_6.stopped,key_resp.rt,session,exp_id,age,sex(M or F),date,expName,psychopyVersion,frameRate,
,,,,23.405859801852785,None,f,0.419220415557902,23.405859801852785,None,,,,,,,,,,,,,,,,,,,,,,,,,,,,,,,,,,3,1,23,M,2021_Aug_02_1331,Social Reinforcement Learning,2021.1.4,60.00488336799254,
0,0,0,0,,,,,,,Social,SD,Observational,images/Observational_trial.png,-0.5,1,24.36873144688434,None,25.367754852748476,26.616650851004124,26.1170625059749,26.616650851004124,None,28.381379684155036,None,27.115910899216942,28.115241663591405,23.88052089761277,None,24.36873144688434,None,0.3,0.7,?,28.399992335790557,None,28.886899969422302,None,28.399992335790557,None,28.399992335790557,None,,3,1,23,M,2021_Aug_02_1331,Social Reinforcement Learning,2021.1.4,60.00488336799254,
1,0,1,0,,,,,,,Social,SD,Private,images/Private_trial.png,0.5,2,30.898703642395958,None,31.894791339916992,33.14333099193027,32.64410175858029,33.14333099193027,d,33.14333099193027,None,33.910095581385576,None,30.405005677045665,None,30.898703642395958,None,0.3,0.7,1,33.933212338903104,None,34.42563267260448,None,33.933212338903104,None,33.933212338903104,None,0.741947246534437,3,1,23,M,2021_Aug_02_1331,Social Reinforcement Learning,2021.1.4,60.00488336799254,
2,0,2,0,,,,,,,Social,SD,Private,images/Private_trial.png,0.5,3,36.40693200107762,None,37.406206271535666,38.65509436854427,38.15583392526787,38.65509436854427,d,38.65509436854427,None,39.254381360009575,None,35.92432264584295,None,36.40693200107762,None,0.3,0.7,1,39.25823329696141,None,39.739550798301934,41.25251713978014,39.25823329696141,None,39.25823329696141,None,0.5841775157377924,3,1,23,M,2021_Aug_02_1331,Social Reinforcement Learning,2021.1.4,60.00488336799254,
3,0,3,0,,,,,,,Social,SD,Private,images/Private_trial.png,0.5,4,41.75376079606667,None,42.75464692092373,44.01666847078468,43.50073007522769,43.999788246578646,d,44.01666847078468,None,None,None,41.26969050025127,None,41.75376079606667,None,0.3,0.7,1,44.38784732894419,None,44.882908259410215,None,44.38784732894419,None,44.38784732894419,None,0.34196755273933377,3,1,23,M,2021_Aug_02_1331,Social Reinforcement Learning,2021.1.4,60.00488336799254,
4,0,4,0,,,,,,,Social,SD,Observational,images/Observational_trial.png,-0.5,5,46.9147692480301,None,47.91293497352672,49.17688363754405,48.66281467703993,49.17688363754405,None,50.9273475592654,None,49.66406425926198,50.67737114448755,46.41994416978832,None,46.9147692480301,None,0.3,0.7,?,50.93900118755755,None,51.42866201072502,None,50.93900118755755,None,50.93900118755755,None,,3,1,23,M,2021_Aug_02_1331,Social Reinforcement Learning,2021.1.4,60.00488336799254,
5,0,5,0,,,,,,,Social,SD,Private,images/Private_trial.png,0.5,6,53.441612549708225,None,54.44028276982954,55.689204447137854,55.19098341291192,55.70584407837032,d,55.689204447137854,None,57.03799662300662,None,52.952978493595765,None,53.441612549708225,None,0.3,0.7,-1,57.05273608333573,None,57.53777941772569,None,57.05273608333573,None,57.05273608333573,None,1.3206638153696986,3,1,23,M,2021_Aug_02_1331,Social Reinforcement Learning,2021.1.4,60.00488336799254,
6,0,6,0,,,,,,,Social,SD,Observational,images/Observational_trial.png,-0.5,7,59.552634157248576,None,60.5514947974234,61.800482845207625,61.30564038422199,61.81700119229845,None,63.56545543183074,None,62.30006170873912,63.29904995405377,59.0562055209175,None,59.552634157248576,None,0.3,0.7,?,63.57609493506334,None,64.06656958667736,None,63.57609493506334,None,63.57609493506334,None,,3,1,23,M,2021_Aug_02_1331,Social Reinforcement Learning,2021.1.4,60.00488336799254,
7,0,7,0,,,,,,,Social,SD,Private,images/Private_trial.png,0.5,8,66.07960743444164,None,67.07897849517576,68.34409496350781,67.82779785133516,68.32769908574664,d,68.32769908574664,None,None,None,65.58322383521772,None,66.07960743444164,None,0.3,0.7,1,68.51537622182877,None,69.01077058492137,None,68.51537622182877,None,68.51537622182877,None,0.1478540608068215,3,1,23,M,2021_Aug_02_1331,Social Reinforcement Learning,2021.1.4,60.00488336799254,
8,0,8,0,,,,,,,Social,SD,Observational,images/Observational_trial.png,-0.5,9,71.0081627783311,None,72.00714470264847,73.25628682474962,72.75713581374566,73.25628682474962,None,75.02148104135267,None,73.76434688686913,74.77152240438136,70.51457819587631,None,71.0081627783311,None,0.3,0.7,?,75.03249506369593,None,75.52116032973481,77.01959509269363,75.03249506369593,None,75.03249506369593,None,,3,1,23,M,2021_Aug_02_1331,Social Reinforcement Learning,2021.1.4,60.00488336799254,
9,0,9,0,,,,,,,Social,SD,Private,images/Private_trial.png,0.5,10,77.53590603204884,None,78.5346769930693,79.79999612838856,79.28396252280527,79.78357852219779,d,79.78357852219779,None,80.33343491703272,None,77.03899344433557,None,77.53590603204884,None,0.3,0.7,1,80.3448226683613,None,80.83253662425523,None,80.3448226683613,None,80.3448226683613,None,0.5305422704859666,3,1,23,M,2021_Aug_02_1331,Social Reinforcement Learning,2021.1.4,60.00488336799254,
10,0,10,0,,,,,,,Social,SD,Private,images/Private_trial.png,0.5,11,82.83814255903962,None,83.82943696503571,85.078536420403,84.57923291533098,85.078536420403,d,85.078536420403,None,None,None,82.34761062338475,None,82.83814255903962,None,0.3,0.7,-1,85.45388990244282,None,85.94462213471161,None,85.45388990244282,None,85.45388990244282,None,0.34921813209803076,3,1,23,M,2021_Aug_02_1331,Social Reinforcement Learning,2021.1.4,60.00488336799254,
11,0,11,0,,,,,,,Social,SD,Observational,images/Observational_trial.png,-0.5,12,87.95892141656714,None,88.95815776103973,90.22383245247602,89.70744408089922,90.20749069825706,None,91.97199513599207,None,90.70697119126271,91.70590531303515,87.46299450942297,None,87.95892141656714,None,0.3,0.7,?,91.98391227087359,None,92.48016747483234,None,91.98391227087359,None,91.98391227087359,None,,3,1,23,M,2021_Aug_02_1331,Social Reinforcement Learning,2021.1.4,60.00488336799254,
12,0,12,0,,,,,,,Social,SD,Observational,images/Observational_trial.png,-0.5,13,94.48634862040308,None,95.485650940288,96.75413650036353,96.23476935864801,96.73486851929829,None,98.49925088276632,None,97.23397962900435,98.23281893581225,93.98795178342971,None,94.48634862040308,None,0.3,0.7,?,98.50916031077213,None,98.99893017114846,None,98.50916031077213,None,98.50916031077213,None,,3,1,23,M,2021_Aug_02_1331,Social Reinforcement Learning,2021.1.4,60.00488336799254,
13,0,13,0,,,,,,,Social,SD,Observational,images/Observational_trial.png,-0.5,14,100.99727406976672,None,101.99631051268807,103.26180229025522,102.7458184625275,103.26180229025522,None,105.00817968699994,None,103.74461312729,104.74489836230805,100.5141294050436,None,100.99727406976672,None,0.3,0.7,?,105.01433246709348,None,105.49483060911462,107.00801028426304,105.01433246709348,None,105.01433246709348,None,,3,1,23,M,2021_Aug_02_1331,Social Reinforcement Learning,2021.1.4,60.00488336799254,
14,0,14,0,,,,,,,Social,SD,Private,images/Private_trial.png,0.5,15,107.52450453255005,None,108.52333001217539,109.78884075273618,109.27287470281408,109.77225840554365,d,109.77225840554365,None,None,None,107.02768241411559,None,107.52450453255005,None,0.3,0.7,1,110.25080098891976,None,110.73833479638051,None,110.25080098891976,None,110.25080098891976,None,0.43472226721587504,3,1,23,M,2021_Aug_02_1331,Social Reinforcement Learning,2021.1.4,60.00488336799254,
15,0,15,0,,,,,,,Social,SD,Private,images/Private_trial.png,0.5,16,112.73608570640681,None,113.73559187846604,115.00068464305696,114.48480590191502,114.98410822180085,d,114.98410822180085,None,115.48387466093754,None,112.253667561351,None,112.73608570640681,None,0.3,0.7,-1,115.49044541700005,None,115.983208664823,117.48142614348853,115.49044541700005,None,115.49044541700005,None,0.47453072518419503,3,1,23,M,2021_Aug_02_1331,Social Reinforcement Learning,2021.1.4,60.00488336799254,
16,0,16,0,,,,,,,Social,SD,Private,images/Private_trial.png,0.5,17,117.98163592159744,None,118.98046337653432,120.24574853649119,119.73007917839641,120.2292021399735,d,120.2292021399735,None,None,None,117.49842567652468,None,117.98163592159744,None,0.3,0.7,1,120.56642183335771,None,121.06420158293531,None,120.56642183335771,None,120.56642183335771,None,0.3075244365818435,3,1,23,M,2021_Aug_02_1331,Social Reinforcement Learning,2021.1.4,60.00488336799254,
17,0,17,0,,,,,,,Social,SD,Observational,images/Observational_trial.png,-0.5,18,123.07701029453438,None,124.07573503326057,125.34100952653353,124.82519518055506,125.3244453522102,None,127.10609786642635,None,125.84451847034961,126.85642090891179,122.58473415859225,None,123.07701029453438,None,0.3,0.7,?,127.11653865329572,None,127.60603473546234,None,127.11653865329572,None,127.11653865329572,None,,3,1,23,M,2021_Aug_02_1331,Social Reinforcement Learning,2021.1.4,60.00488336799254,
18,0,18,0,,,,,,,Social,SD,Private,images/Private_trial.png,0.5,19,129.63718737728323,None,130.6360270791538,131.90186019059365,131.38509413940756,131.8852371519797,d,131.8852371519797,None,None,None,129.13587656039726,None,129.63718737728323,None,0.3,0.7,-1,131.9685277527351,None,132.45097157684359,None,131.9685277527351,None,131.9685277527351,None,0.021082107389702287,3,1,23,M,2021_Aug_02_1331,Social Reinforcement Learning,2021.1.4,60.00488336799254,
19,0,19,0,,,,,,,Social,SD,Private,images/Private_trial.png,0.5,20,134.43249016492246,None,135.448415918484,136.71379786871785,136.19779942368314,136.6969057926408,d,136.6969057926408,None,None,None,133.96416191867593,None,134.43249016492246,None,0.3,0.7,-1,137.13502322571549,None,137.63674648769847,None,137.13502322571549,None,137.13502322571549,None,0.4027056240283855,3,1,23,M,2021_Aug_02_1331,Social Reinforcement Learning,2021.1.4,60.00488336799254,
20,0,20,0,,,,,,,Social,SD,Private,images/Private_trial.png,0.5,21,139.6276323992215,None,140.62658311361247,141.87570785297066,141.37574893945475,141.87570785297066,d,141.87570785297066,None,None,None,139.1446627471214,None,139.6276323992215,None,0.3,0.7,-1,142.20026658807546,None,142.69170716714234,None,142.20026658807546,None,142.20026658807546,None,0.29979622683913476,3,1,23,M,2021_Aug_02_1331,Social Reinforcement Learning,2021.1.4,60.00488336799254,
21,0,21,0,,,,,,,Social,SD,Observational,images/Observational_trial.png,-0.5,22,144.70602146136753,None,145.70565049781817,146.95407084100043,146.45458797762058,146.95407084100043,None,148.71930732927558,None,147.45390689012402,148.4531226913541,144.20991045516712,None,144.70602146136753,None,0.3,0.7,?,148.7338200238146,None,149.2025733571527,150.7172542692415,148.7338200238146,None,148.7338200238146,None,,3,1,23,M,2021_Aug_02_1331,Social Reinforcement Learning,2021.1.4,60.00488336799254,
22,0,22,0,,,,,,,Social,SD,Observational,images/Observational_trial.png,-0.5,23,151.21693624404725,None,152.2161583662746,153.48181804534215,152.96550789611138,153.46473752452312,None,155.22987406202355,None,153.96432349917814,154.96396952330997,150.73423878990798,None,151.21693624404725,None,0.3,0.7,?,155.23341350465307,None,155.72953359728763,None,155.23341350465307,None,155.23341350465307,None,,3,1,23,M,2021_Aug_02_1331,Social Reinforcement Learning,2021.1.4,60.00488336799254,
23,0,23,0,,,,,,,Social,SD,Private,images/Private_trial.png,0.5,24,157.74400710164082,None,158.76011221351018,160.02591253477567,159.50920574294196,160.00870006313107,d,160.00870006313107,None,160.7579369211844,None,157.25152869377325,None,157.74400710164082,None,0.3,0.7,-1,160.76832714007196,None,161.25727961644134,None,160.76832714007196,None,160.76832714007196,None,0.726503073979984,3,1,23,M,2021_Aug_02_1331,Social Reinforcement Learning,2021.1.4,60.00488336799254,
24,0,24,0,,,,,,,Social,SD,Observational,images/Observational_trial.png,-0.5,25,163.27282808545624,None,164.27159944153937,165.53706395980498,165.02098136648874,165.52041168657615,None,167.28547632272785,None,166.01982896960635,167.01872951107816,162.77587006557224,None,163.27282808545624,None,0.3,0.7,?,167.29549478794252,None,167.78492528975858,None,167.29549478794252,None,167.29549478794252,None,,3,1,23,M,2021_Aug_02_1331,Social Reinforcement Learning,2021.1.4,60.00488336799254,
25,0,25,0,,,,,,,Social,SD,Observational,images/Observational_trial.png,-0.5,26,169.7831984722152,None,170.78184380340736,172.03315007707624,171.53131343219866,172.03315007707624,None,173.79626626570462,None,172.53157575360092,173.54598525785332,169.29988077018152,None,169.7831984722152,None,0.3,0.7,?,173.80082062351903,None,174.296662987319,None,173.80082062351903,None,173.80082062351903,None,,3,1,23,M,2021_Aug_02_1331,Social Reinforcement Learning,2021.1.4,60.00488336799254,
26,0,26,0,,,,,,,Social,SD,Observational,images/Observational_trial.png,-0.5,27,176.29342584640108,None,177.29268273411617,178.54118367001865,178.04187779457243,178.54118367001865,None,180.3064513682193,None,179.06124730666215,180.07329670841955,175.81404928639859,None,176.29342584640108,None,0.3,0.7,?,180.31317106278857,None,180.8058837426306,None,180.31317106278857,None,180.31317106278857,None,,3,1,23,M,2021_Aug_02_1331,Social Reinforcement Learning,2021.1.4,60.00488336799254,
27,0,27,0,,,,,,,Social,SD,Private,images/Private_trial.png,0.5,28,182.82077996370117,None,183.8199108265253,185.08531134468922,184.56904109675634,185.06918964020042,a,185.06918964020042,None,185.56861435040264,None,182.32627172546654,None,182.82077996370117,None,0.3,0.7,-1,185.5780899999445,None,186.06793531723088,None,185.5780899999445,None,185.5780899999445,None,0.4741751690671663,3,1,23,M,2021_Aug_02_1331,Social Reinforcement Learning,2021.1.4,60.00488336799254,
28,0,28,0,,,,,,,Social,SD,Observational,images/Observational_trial.png,-0.5,29,188.0996414414085,None,189.0984491432282,190.36358615480276,189.84807521671155,190.34702909160114,None,192.11599180798657,None,190.84684657279468,191.84586958359614,187.60799582498112,None,188.0996414414085,None,0.3,0.7,?,192.1307190213829,None,192.61141350939397,194.1268616325715,192.1307190213829,None,192.1307190213829,None,,3,1,23,M,2021_Aug_02_1331,Social Reinforcement Learning,2021.1.4,60.00488336799254,
29,0,29,0,,,,,,,Social,SD,Observational,images/Observational_trial.png,-0.5,30,194.62661708897485,None,195.62547891433678,196.8910398278158,196.3747794564415,196.8743547644126,None,198.6393913511365,None,197.37414814680233,198.39182679202258,194.14318639910925,None,194.62661708897485,None,0.3,0.7,?,198.6438109926885,None,199.13873878714276,None,198.6438109926885,None,198.6438109926885,None,,3,1,23,M,2021_Aug_02_1331,Social Reinforcement Learning,2021.1.4,60.00488336799254,
30,0,30,0,,,,,,,Social,SD,Observational,images/Observational_trial.png,-0.5,31,201.13703843877647,None,202.1358737949613,203.40147065911424,202.8857487577261,203.38476742284183,None,205.15006475071914,None,203.89896201317424,204.9001823607823,200.65417505844925,None,201.13703843877647,None,0.3,0.7,?,205.15417426832482,None,205.6494082361014,None,205.15417426832482,None,205.15417426832482,None,,3,1,23,M,2021_Aug_02_1331,Social Reinforcement Learning,2021.1.4,60.00488336799254,
31,0,31,0,,,,,,,Social,SD,Private,images/Private_trial.png,0.5,32,207.6641594692892,None,208.66362455486342,209.92911198674483,209.42721292201531,209.92911198674483,a,209.9121519599439,None,210.61191752994364,None,207.16801962353748,None,207.6641594692892,None,0.3,0.7,1,210.62703664519358,None,211.11112076819063,None,210.62703664519358,None,210.62703664519358,None,0.6755305489868988,3,1,23,M,2021_Aug_02_1331,Social Reinforcement Learning,2021.1.4,60.00488336799254,
32,0,32,0,,,,,,,Social,SD,Private,images/Private_trial.png,0.5,33,213.10899770310698,None,214.10802940528083,215.37192513094305,214.85788224455428,215.37192513094305,a,215.37192513094305,None,218.82019558746924,None,212.626318421836,None,213.10899770310698,None,0.3,0.7,1,218.82785948106175,None,219.32035290129807,220.82664703470164,218.82785948106175,None,218.82785948106175,None,3.422357210638438,3,1,23,M,2021_Aug_02_1331,Social Reinforcement Learning,2021.1.4,60.00488336799254,
33,0,33,0,,,,,,,Social,SD,Observational,images/Observational_trial.png,-0.5,34,221.36794487774023,None,222.3685098169044,223.63272159244843,223.12699990439523,223.63272159244843,None,225.3890434987352,None,224.14148881617984,225.15938277038276,220.8809080587189,None,221.36794487774023,None,0.3,0.7,?,225.4526245177276,None,225.94552050650145,None,225.4526245177276,None,225.4526245177276,None,,3,1,23,M,2021_Aug_02_1331,Social Reinforcement Learning,2021.1.4,60.00488336799254,
34,0,34,0,,,,,,,Social,SD,Private,images/Private_trial.png,0.5,35,227.94525502460056,None,228.9324135228262,230.2012617501423,229.6795858640371,230.2012617501423,a,230.17985727187352,None,231.52536173884346,None,227.43207258401617,None,227.94525502460056,None,0.3,0.7,-1,231.53634652657183,None,232.03109496271827,None,231.53634652657183,None,231.53634652657183,None,1.3298810151200087,3,1,23,M,2021_Aug_02_1331,Social Reinforcement Learning,2021.1.4,60.00488336799254,
35,0,35,0,,,,,,,Social,SD,Private,images/Private_trial.png,0.5,36,234.02348171611902,None,235.02272754208752,236.28755561490289,235.7714821080208,236.27093257628803,a,236.27093257628803,None,None,None,233.54010831029427,None,234.02348171611902,None,0.3,0.7,-1,236.6751757829934,None,237.17029597281362,None,236.6751757829934,None,236.6751757829934,None,0.3758714087844055,3,1,23,M,2021_Aug_02_1331,Social Reinforcement Learning,2021.1.4,60.00488336799254,
36,0,36,0,,,,,,,Social,SD,Observational,images/Observational_trial.png,-0.5,37,239.22485447878262,None,240.22279817923663,241.48282071359336,240.96681476237427,241.46589426709215,None,243.2317450773253,None,241.966941182327,242.9781313234671,238.73552274255417,None,239.22485447878262,None,0.3,0.7,?,243.2655466912338,None,243.74698113103204,None,243.2655466912338,None,243.2655466912338,None,,3,1,23,M,2021_Aug_02_1331,Social Reinforcement Learning,2021.1.4,60.00488336799254,
37,0,37,0,,,,,,,Social,SD,Observational,images/Observational_trial.png,-0.5,38,245.7620729079672,None,246.76071823915936,248.0097193240008,247.51878837536879,248.02842039059033,None,249.78995553968252,None,248.521458601811,249.52554315147518,245.26647469270029,None,245.7620729079672,None,0.3,0.7,?,249.80283978720308,None,250.27749140146807,251.78972766771767,249.80283978720308,None,249.80283978720308,None,,3,1,23,M,2021_Aug_02_1331,Social Reinforcement Learning,2021.1.4,60.00488336799254,
38,0,38,0,,,,,,,Social,SD,Private,images/Private_trial.png,0.5,39,252.30656957087558,None,253.30572808806392,254.56973601143454,254.05443327120338,254.56973601143454,a,254.56973601143454,None,256.50179389913137,None,251.80948236560198,None,252.30656957087558,None,0.3,0.7,-1,256.51593997580585,None,257.0015360024272,None,256.51593997580585,None,256.51593997580585,None,1.9010459670844284,3,1,23,M,2021_Aug_02_1331,Social Reinforcement Learning,2021.1.4,60.00488336799254,
39,0,39,0,,,,,,,Social,SD,Observational,images/Observational_trial.png,-0.5,40,259.02029593330735,None,260.01817326328637,261.2810106169054,260.76704239730134,261.2810106169054,None,263.0292124115949,None,261.7638467379302,262.77932923153276,258.5271696231812,None,259.02029593330735,None,0.3,0.7,?,263.04032480446403,None,263.5288624653631,None,263.04032480446403,None,263.04032480446403,None,,3,1,23,M,2021_Aug_02_1331,Social Reinforcement Learning,2021.1.4,60.00488336799254,
40,0,40,0,,,,,,,Private,PL,Private,images/Private_trial.png,0.5,41,265.5637310636739,None,266.5597421190987,267.82325384415435,267.3092299207583,267.82325384415435,a,267.82325384415435,None,None,None,265.0811134121295,None,265.5637310636739,None,0.3,0.7,1,268.20540397891,None,268.6965992242558,None,268.20540397891,None,268.20540397891,None,0.33836063345916045,3,1,23,M,2021_Aug_02_1331,Social Reinforcement Learning,2021.1.4,60.00488336799254,
41,0,41,0,,,,,,,Private,PL,Private,images/Private_trial.png,0.5,42,270.6906772395887,None,271.68756256800043,272.936571554088,272.43714083893883,272.936571554088,a,272.936571554088,None,274.3351882037541,None,270.20592230071634,None,270.6906772395887,None,0.3,0.7,-1,274.3426521957963,None,274.8351321839127,None,274.3426521957963,None,274.3426521957963,None,1.371592093380059,3,1,23,M,2021_Aug_02_1331,Social Reinforcement Learning,2021.1.4,60.00488336799254,
42,0,42,0,,,,,,,Private,PL,Private,images/Private_trial.png,0.5,43,276.8496685031796,None,277.84958830552205,279.1153139600019,278.5992503296793,279.1153139600019,a,279.09824015524373,None,279.8122165131317,None,276.35218505036664,None,276.8496685031796,None,0.3,0.7,1,279.84249101035584,None,280.33086748581536,None,279.84249101035584,None,279.84249101035584,None,0.6891515087827429,3,1,23,M,2021_Aug_02_1331,Social Reinforcement Learning,2021.1.4,60.00488336799254,
43,0,43,0,,,,,,,Private,PL,Private,images/Private_trial.png,0.5,44,282.34333683885325,None,283.32746244339705,284.57792288856945,284.0764236269406,284.57792288856945,a,284.57792288856945,None,286.9080874794472,None,281.8453453358543,None,282.34333683885325,None,0.3,0.7,-1,286.95015498296107,None,287.4280674418842,288.94120800585915,286.95015498296107,None,286.95015498296107,None,2.309390711136075,3,1,23,M,2021_Aug_02_1331,Social Reinforcement Learning,2021.1.4,60.00488336799254,
44,0,44,0,,,,,,,Private,PL,Private,images/Private_trial.png,0.5,45,289.4551161759855,None,290.47329576027005,291.73716501675426,291.203229555721,291.70280407356677,a,291.70280407356677,None,294.03422219728964,None,288.967660195809,None,289.4551161759855,None,0.3,0.7,-1,294.0514438343798,None,294.53554731543227,296.0444433294906,294.0514438343798,None,294.0514438343798,None,2.3023060579653247,3,1,23,M,2021_Aug_02_1331,Social Reinforcement Learning,2021.1.4,60.00488336799254,
45,0,45,0,,,,,,,Private,PL,Private,images/Private_trial.png,0.5,46,296.5478945942041,None,297.54900748485124,298.8129016302646,298.30902646364666,298.8129016302646,a,298.7961091099005,None,299.86190824597816,None,296.0652295351774,None,296.5478945942041,None,0.3,0.7,-1,299.8751440989927,None,300.3663377640896,None,299.8751440989927,None,299.8751440989927,None,1.048992472482496,3,1,23,M,2021_Aug_02_1331,Social Reinforcement Learning,2021.1.4,60.00488336799254,
46,0,46,0,,,,,,,Private,PL,Private,images/Private_trial.png,0.5,47,302.36009538385406,None,303.35874901135594,304.60715078660814,304.1076315774917,304.60715078660814,d,304.60715078660814,None,None,None,301.87668997797937,None,302.36009538385406,None,0.3,0.7,1,305.0486400768632,None,305.54010396460853,None,305.0486400768632,None,305.0486400768632,None,0.38120949129461223,3,1,23,M,2021_Aug_02_1331,Social Reinforcement Learning,2021.1.4,60.00488336799254,
47,0,47,0,,,,,,,Private,PL,Private,images/Private_trial.png,0.5,48,307.5289505642677,None,308.53718484888486,309.8023617617564,309.283570225889,309.78574346389087,d,309.78574346389087,None,None,None,307.0396974454479,None,307.5289505642677,None,0.3,0.7,1,310.16708095538706,None,310.6523719938714,None,310.16708095538706,None,310.16708095538706,None,0.3365180626460642,3,1,23,M,2021_Aug_02_1331,Social Reinforcement Learning,2021.1.4,60.00488336799254,
48,0,48,0,,,,,,,Private,PL,Private,images/Private_trial.png,0.5,49,312.6677707342551,None,313.66589497820405,314.9152172487384,314.41461398852607,314.9152172487384,d,314.9152172487384,None,316.3133677248279,None,312.17960245665563,None,312.6677707342551,None,0.3,0.7,1,316.3256384405149,None,316.8159108202044,None,316.3256384405149,None,316.3256384405149,None,1.3666866041467074,3,1,23,M,2021_Aug_02_1331,Social Reinforcement Learning,2021.1.4,60.00488336799254,
49,0,49,0,,,,,,,Private,PL,Private,images/Private_trial.png,0.5,50,318.8285022475093,None,319.8262104908017,321.0916983177458,320.57562678617523,321.0751400693571,d,321.0916983177458,None,None,None,318.33377316941915,None,318.8285022475093,None,0.3,0.7,-1,321.4440125535011,None,321.93887595279193,None,321.4440125535011,None,321.4440125535011,None,0.3023593913831064,3,1,23,M,2021_Aug_02_1331,Social Reinforcement Learning,2021.1.4,60.00488336799254,
50,0,50,0,,,,,,,Private,PL,Private,images/Private_trial.png,0.5,51,323.9418914637299,None,324.93816760599293,326.20373563059457,325.68821718631807,326.20373563059457,d,326.18723150574806,None,326.90320490382965,None,323.44574371673025,None,323.9418914637299,None,0.3,0.7,1,326.9257662036798,None,327.41294287477376,328.917876413434,326.9257662036798,None,326.9257662036798,None,0.6856077994798397,3,1,23,M,2021_Aug_02_1331,Social Reinforcement Learning,2021.1.4,60.00488336799254,
51,0,51,0,,,,,,,Private,PL,Private,images/Private_trial.png,0.5,52,329.4274811693531,None,330.41690416498386,331.666009151224,331.16572589151747,331.666009151224,d,331.666009151224,None,333.72972591364123,None,328.9347929833766,None,329.4274811693531,None,0.3,0.7,1,333.7350182479304,None,334.22942218970366,None,333.7350182479304,None,333.7350182479304,None,2.045682245028729,3,1,23,M,2021_Aug_02_1331,Social Reinforcement Learning,2021.1.4,60.00488336799254,
52,0,52,0,,,,,,,Private,PL,Private,images/Private_trial.png,0.5,53,336.22776411300947,None,337.2273753716545,338.49096571411883,337.9773664827517,338.49096571411883,d,338.49096571411883,None,341.3065382819368,None,335.74474744848976,None,336.22776411300947,None,0.3,0.7,1,341.3188718125384,None,341.8088909572598,None,341.3188718125384,None,341.3188718125384,None,2.7868828237160415,3,1,23,M,2021_Aug_02_1331,Social Reinforcement Learning,2021.1.4,60.00488336799254,
53,0,53,0,,,,,,,Private,PL,Private,images/Private_trial.png,0.5,54,343.804398703247,None,344.8090414760163,346.0684283550472,345.5846010225796,346.0851477888755,d,346.0684283550472,None,347.1416973300893,None,343.32151359449017,None,343.804398703247,None,0.3,0.7,1,347.15752597732444,None,347.6436423010646,349.1490803343495,347.15752597732444,None,347.15752597732444,None,1.0434288093692885,3,1,23,M,2021_Aug_02_1331,Social Reinforcement Learning,2021.1.4,60.00488336799254,
54,0,54,0,,,,,,,Private,PL,Private,images/Private_trial.png,0.5,55,349.64910364302796,None,350.66280954122976,351.91322771473006,351.39648813272197,351.8963067991017,d,351.8963067991017,None,353.11011683574,None,349.16565833585537,None,349.64910364302796,None,0.3,0.7,1,353.1234672568371,None,353.6118946953393,None,353.1234672568371,None,353.1234672568371,None,1.1808544092509692,3,1,23,M,2021_Aug_02_1331,Social Reinforcement Learning,2021.1.4,60.00488336799254,
55,0,55,0,,,,,,,Private,PL,Private,images/Private_trial.png,0.5,56,355.61027968044164,None,356.6086654556684,357.8576116268432,357.36051533513546,357.8791405497532,d,357.8576116268432,None,359.20608222195733,None,355.12712158359955,None,355.61027968044164,None,0.3,0.7,1,359.2108036911468,None,359.711364679687,None,359.2108036911468,None,359.2108036911468,None,1.331751635360888,3,1,23,M,2021_Aug_02_1331,Social Reinforcement Learning,2021.1.4,60.00488336799254,
56,0,56,0,,,,,,,Private,PL,Private,images/Private_trial.png,0.5,57,361.7041464954409,None,362.71076932072174,363.96901683992746,363.46879876550884,363.9864529168635,d,363.96901683992746,None,None,None,361.2216765972171,None,361.7041464954409,None,0.3,0.7,-1,364.42543988217676,None,364.9176046105358,None,364.42543988217676,None,364.42543988217676,None,0.40196132655637484,3,1,23,M,2021_Aug_02_1331,Social Reinforcement Learning,2021.1.4,60.00488336799254,
57,0,57,0,,,,,,,Private,PL,Private,images/Private_trial.png,0.5,58,366.9173513755677,None,367.92161883910103,369.17934013525337,368.67217765479927,369.17934013525337,d,369.17934013525337,None,None,None,366.43280265924386,None,366.9173513755677,None,0.3,0.7,-1,369.3236864374303,None,369.81620237622064,None,369.3236864374303,None,369.3236864374303,None,0.08610581508128234,3,1,23,M,2021_Aug_02_1331,Social Reinforcement Learning,2021.1.4,60.00488336799254,
58,0,58,0,,,,,,,Private,PL,Private,images/Private_trial.png,0.5,59,371.81259545694047,None,372.812716741083,374.0774132581346,373.5632763469057,374.0774132581346,d,374.05998271207136,None,376.8909642918943,None,371.32902649525204,None,371.81259545694047,None,0.3,0.7,-1,376.91956728030345,None,377.3922763729797,378.90234058641454,376.91956728030345,None,376.91956728030345,None,2.802318304898108,3,1,23,M,2021_Aug_02_1331,Social Reinforcement Learning,2021.1.4,60.00488336799254,
59,0,59,0,,,,,,,Private,PL,Private,images/Private_trial.png,0.5,60,379.40415905842383,None,380.41383492556633,381.6700767132079,381.1692233785261,381.6700767132079,d,381.65397950258466,None,383.02615581417194,None,378.9211459494654,None,379.40415905842383,None,0.3,0.7,1,383.0646626207017,None,383.5608218245088,None,383.0646626207017,None,383.0646626207017,None,1.3494417373894976,3,1,23,M,2021_Aug_02_1331,Social Reinforcement Learning,2021.1.4,60.00488336799254,
60,0,60,0,,,,,,,Social,UD,Observational,images/Observational_trial.png,-0.5,61,385.5729774980382,None,386.5645441019951,387.8133954582054,387.3147031145927,387.8133954582054,None,389.57907086075375,None,388.3200376415407,389.3375203358346,385.0692228254384,None,385.5729774980382,None,0.3,0.7,?,389.61772305022896,None,390.11323316659036,None,389.61772305022896,None,389.61772305022896,None,,3,1,23,M,2021_Aug_02_1331,Social Reinforcement Learning,2021.1.4,60.00488336799254,
61,0,61,0,,,,,,,Social,UD,Observational,images/Observational_trial.png,-0.5,62,392.1116821517935,None,393.12507634579924,394.3738320969196,393.877185386169,394.3738320969196,None,396.1385881893739,None,394.8662283318172,395.88739419242484,391.62232394638795,None,392.1116821517935,None,0.3,0.7,?,396.1526370807105,None,396.622065180547,398.13684327797455,396.1526370807105,None,396.1526370807105,None,,3,1,23,M,2021_Aug_02_1331,Social Reinforcement Learning,2021.1.4,60.00488336799254,
62,0,62,0,,,,,,,Social,UD,Private,images/Private_trial.png,0.5,63,398.6752792893303,None,399.6834242898558,400.93401787104085,400.4187862420322,400.93401787104085,d,400.916958288527,None,403.78271088625934,None,398.17297686593884,None,398.6752792893303,None,0.3,0.7,1,403.79851701494044,None,404.28086997470837,None,403.79851701494044,None,403.79851701494044,None,2.849519564672846,3,1,23,M,2021_Aug_02_1331,Social Reinforcement Learning,2021.1.4,60.00488336799254,
63,0,63,0,,,,,,,Social,UD,Observational,images/Observational_trial.png,-0.5,64,406.2954951830043,None,407.297359482247,408.56541007867236,408.04704916076935,408.56541007867236,None,410.3089347301684,None,409.06724079761534,410.07559913181103,405.8109796519184,None,406.2954951830043,None,0.3,0.7,?,410.33319400800974,None,410.83189346274503,None,410.33319400800974,None,410.33319400800974,None,,3,1,23,M,2021_Aug_02_1331,Social Reinforcement Learning,2021.1.4,60.00488336799254,
64,0,64,0,,,,,,,Social,UD,Private,images/Private_trial.png,0.5,65,412.8618079791531,None,413.85591562416266,415.1210072035665,414.6054690061728,415.1210072035665,d,415.1043094981678,None,419.369438529483,None,412.36407129137206,None,412.8618079791531,None,0.3,0.7,1,419.4158410521932,None,419.89742601074704,None,419.4158410521932,None,419.4158410521932,None,4.239252526225755,3,1,23,M,2021_Aug_02_1331,Social Reinforcement Learning,2021.1.4,60.00488336799254,
65,0,65,0,,,,,,,Social,UD,Private,images/Private_trial.png,0.5,66,421.88569384405946,None,422.8970799361259,424.16231492316456,423.64815904894294,424.16231492316456,d,424.1456425017559,None,431.740340843995,None,421.3991062109335,None,421.88569384405946,None,0.3,0.7,-1,431.7769169808071,None,432.253278819996,433.7543687970274,431.7769169808071,None,431.7769169808071,None,7.564053829615659,3,1,23,M,2021_Aug_02_1331,Social Reinforcement Learning,2021.1.4,60.00488336799254,
66,0,66,0,,,,,,,Social,UD,Private,images/Private_trial.png,0.5,67,434.2533297830396,None,435.2524357569355,436.517575533946,436.00304988136304,436.517575533946,d,436.517575533946,None,437.6333765268173,None,433.77008398235466,None,434.2533297830396,None,0.3,0.7,-1,437.63812209480966,None,438.1347237684522,None,437.63812209480966,None,437.63812209480966,None,1.1000807507443824,3,1,23,M,2021_Aug_02_1331,Social Reinforcement Learning,2021.1.4,60.00488336799254,
67,0,67,0,,,,,,,Social,UD,Observational,images/Observational_trial.png,-0.5,68,440.1310086020876,None,441.1467455158445,442.39619223102,441.8958335144034,442.39619223102,None,444.15923019730235,None,442.8862528572881,443.88577009109304,439.65529347997017,None,440.1310086020876,None,0.3,0.7,?,444.21182966807646,None,444.6934873181035,None,444.21182966807646,None,444.21182966807646,None,,3,1,23,M,2021_Aug_02_1331,Social Reinforcement Learning,2021.1.4,60.00488336799254,
68,0,68,0,,,,,,,Social,UD,Observational,images/Observational_trial.png,-0.5,69,446.6915613891342,None,447.69044731329905,448.9394539290133,448.4397755097689,448.9394539290133,None,450.7132668259028,None,449.4390379283559,450.4457780871553,446.195763272317,None,446.6915613891342,None,0.3,0.7,?,450.7391083284674,None,451.2205242003347,452.7340479747918,450.7391083284674,None,450.7391083284674,None,,3,1,23,M,2021_Aug_02_1331,Social Reinforcement Learning,2021.1.4,60.00488336799254,
69,0,69,0,,,,,,,Social,UD,Private,images/Private_trial.png,0.5,70,453.271721910869,None,454.26766857113034,455.51671706345405,455.01728279274266,455.51671706345405,d,455.51671706345405,None,456.1326575133353,None,452.78027540586754,None,453.271721910869,None,0.3,0.7,1,456.1519915488261,None,456.6321866780236,458.14030639455814,456.1519915488261,None,456.1519915488261,None,0.5917342684197138,3,1,23,M,2021_Aug_02_1331,Social Reinforcement Learning,2021.1.4,60.00488336799254,
70,0,70,0,,,,,,,Social,UD,Observational,images/Observational_trial.png,-0.5,71,458.6829604866534,None,459.68472681043204,460.94484099925467,460.4285249240884,460.92838151645446,None,462.6936097084199,None,461.42743573718235,462.4437281086075,458.1801579143239,None,458.6829604866534,None,0.3,0.7,?,462.72470198471456,None,463.21174907535624,None,462.72470198471456,None,462.72470198471456,None,,3,1,23,M,2021_Aug_02_1331,Social Reinforcement Learning,2021.1.4,60.00488336799254,
71,0,71,0,,,,,,,Social,UD,Private,images/Private_trial.png,0.5,72,465.22389368714084,None,466.2231004019359,467.47164044901183,466.9724827219479,467.47164044901183,d,467.47164044901183,None,None,None,464.72684875353843,None,465.22389368714084,None,0.3,0.7,1,467.7982124218661,None,468.2877373435849,None,467.7982124218661,None,467.7982124218661,None,0.2611081657023533,3,1,23,M,2021_Aug_02_1331,Social Reinforcement Learning,2021.1.4,60.00488336799254,
72,0,72,0,,,,,,,Social,UD,Private,images/Private_trial.png,0.5,73,470.2697193398035,None,471.2686380541436,472.5197894633711,472.0190668943278,472.5197894633711,d,472.5197894633711,None,476.8290177248673,None,469.78788667715435,None,470.2697193398035,None,0.3,0.7,-1,476.86547336766125,None,477.34855205697113,478.85100855468045,476.86547336766125,None,476.86547336766125,None,4.2848423266641475,3,1,23,M,2021_Aug_02_1331,Social Reinforcement Learning,2021.1.4,60.00488336799254,
73,0,73,0,,,,,,,Social,UD,Private,images/Private_trial.png,0.5,74,479.3618435347653,None,480.36253528894485,481.62561560591075,481.1094231852612,481.60876264100716,d,481.60876264100716,None,482.3413784357581,None,478.8786913638578,None,479.3618435347653,None,0.3,0.7,1,482.34832015536995,None,482.83691391512275,484.33977377149404,482.34832015536995,None,482.34832015536995,None,0.7020103933009523,3,1,23,M,2021_Aug_02_1331,Social Reinforcement Learning,2021.1.4,60.00488336799254,
74,0,74,0,,,,,,,Social,UD,Private,images/Private_trial.png,0.5,75,484.8394486351781,None,485.83850325096773,487.1053259936016,486.58755134822877,487.08763115082456,d,487.08763115082456,None,487.58704045359445,None,484.3563932545476,None,484.8394486351781,None,0.3,0.7,1,487.60217221083985,None,488.0859414691422,489.5873964837865,487.60217221083985,None,487.60217221083985,None,0.47819295319368393,3,1,23,M,2021_Aug_02_1331,Social Reinforcement Learning,2021.1.4,60.00488336799254,
75,0,75,0,,,,,,,Social,UD,Observational,images/Observational_trial.png,-0.5,76,490.13449739772386,None,491.13292425943564,492.38254954279455,491.88594984446354,492.3990410256447,None,494.1469279556395,None,492.8813370964335,493.88068405836475,489.64895312427143,None,490.13449739772386,None,0.3,0.7,?,494.1666404608641,None,494.6468928741024,None,494.1666404608641,None,494.1666404608641,None,,3,1,23,M,2021_Aug_02_1331,Social Reinforcement Learning,2021.1.4,60.00488336799254,
76,0,76,0,,,,,,,Social,UD,Private,images/Private_trial.png,0.5,77,496.6616409467906,None,497.6600891418693,498.9100103269302,498.4098475612409,498.9100103269302,d,498.9100103269302,None,None,None,496.17257232208976,None,496.6616409467906,None,0.3,0.7,1,499.27525100286584,None,499.7549305756929,501.2572464312043,499.27525100286584,None,499.27525100286584,None,0.31580178299554973,3,1,23,M,2021_Aug_02_1331,Social Reinforcement Learning,2021.1.4,60.00488336799254,
77,0,77,0,,,,,,,Social,UD,Private,images/Private_trial.png,0.5,78,501.77369564238325,None,502.772673221014,504.02308428339256,503.5214522808137,504.02308428339256,d,504.02308428339256,None,505.47065982524055,None,501.2762963378509,None,501.77369564238325,None,0.3,0.7,-1,505.50683102313997,None,505.9895624526416,None,505.50683102313997,None,505.50683102313997,None,1.4293695673995899,3,1,23,M,2021_Aug_02_1331,Social Reinforcement Learning,2021.1.4,60.00488336799254,
78,0,78,0,,,,,,,Social,UD,Observational,images/Observational_trial.png,-0.5,79,508.0044717107703,None,509.0016600520057,510.2657544940321,509.74956325856874,510.2491172331729,None,512.0165795027424,None,510.75269412771377,511.78471551164876,507.5041082534053,None,508.0044717107703,None,0.3,0.7,?,512.0546900617319,None,512.5320869642856,None,512.0546900617319,None,512.0546900617319,None,,3,1,23,M,2021_Aug_02_1331,Social Reinforcement Learning,2021.1.4,60.00488336799254,
79,0,79,0,,,,,,,Social,UD,Private,images/Private_trial.png,0.5,80,514.5486527188586,None,515.5439526620485,516.8092295256956,516.3076769306499,516.8092295256956,d,516.7925618450363,None,None,None,514.0584222157786,None,514.5486527188586,None,0.3,0.7,1,517.0142076273896,None,517.5087443101147,None,517.0142076273896,None,517.0142076273896,None,0.17465548587551893,3,1,23,M,2021_Aug_02_1331,Social Reinforcement Learning,2021.1.4,60.00488336799254,
80,0,80,0,,,,,,,Social,UD,Private,images/Private_trial.png,0.5,81,519.4908140101752,None,520.4889090195102,521.7544075131373,521.2386378092051,521.7376643755679,d,521.7544075131373,None,None,None,519.0075966539798,None,519.4908140101752,None,0.3,0.7,1,522.1698001695604,None,522.6539135271714,None,522.1698001695604,None,522.1698001695604,None,0.3816045536459569,3,1,23,M,2021_Aug_02_1331,Social Reinforcement Learning,2021.1.4,60.00488336799254,
81,0,81,0,,,,,,,Social,UD,Observational,images/Observational_trial.png,-0.5,82,524.6729334090796,None,525.6691182919403,526.9173900916785,526.4168512266288,526.9173900916785,None,528.6848199661354,None,527.4202171578736,528.43254507859,524.1779558367698,None,524.6729334090796,None,0.3,0.7,?,528.7287355713352,None,529.2124167307329,None,528.7287355713352,None,528.7287355713352,None,,3,1,23,M,2021_Aug_02_1331,Social Reinforcement Learning,2021.1.4,60.00488336799254,
82,0,82,0,,,,,,,Social,UD,Observational,images/Observational_trial.png,-0.5,83,531.2295316219761,None,532.2284827314297,533.4936296195629,532.9773443592603,533.4771606552658,None,535.2420771430352,None,533.97826287923,534.992319987864,530.7325175032374,None,531.2295316219761,None,0.3,0.7,?,535.2457868575393,None,535.7418753451857,None,535.2457868575393,None,535.2457868575393,None,,3,1,23,M,2021_Aug_02_1331,Social Reinforcement Learning,2021.1.4,60.00488336799254,
83,0,83,0,,,,,,,Social,UD,Private,images/Private_trial.png,0.5,84,537.7569785789292,None,538.7558641080323,540.0214412190671,539.5056035644102,540.0214412190671,d,540.0047529951653,None,542.9273013369702,None,537.2595848052697,None,537.7569785789292,None,0.3,0.7,1,542.9641567828648,None,543.4392445459662,None,542.9641567828648,None,542.9641567828648,None,2.903134661743934,3,1,23,M,2021_Aug_02_1331,Social Reinforcement Learning,2021.1.4,60.00488336799254,
84,0,84,0,,,,,,,Social,UD,Private,images/Private_trial.png,0.5,85,545.4497298958695,None,546.4486067336011,547.723202328023,547.1982170045894,547.723202328023,d,547.6970397187788,None,548.3301594550667,None,544.9517549854891,None,545.4497298958695,None,0.3,0.7,-1,548.3392198940755,None,548.8293781007451,None,548.3392198940755,None,548.3392198940755,None,0.6149204778985222,3,1,23,M,2021_Aug_02_1331,Social Reinforcement Learning,2021.1.4,60.00488336799254,
85,0,85,0,,,,,,,Social,UD,Observational,images/Observational_trial.png,-0.5,86,550.8461433618068,None,551.8604213102954,553.1106273353125,552.6031092987405,553.1106273353125,None,554.8569170282144,None,553.5913194529494,554.5909121436634,550.3488084524379,None,550.8461433618068,None,0.3,0.7,?,554.8669335181166,None,555.3564343410317,None,554.8669335181166,None,554.8669335181166,None,,3,1,23,M,2021_Aug_02_1331,Social Reinforcement Learning,2021.1.4,60.00488336799254,
86,0,86,0,,,,,,,Social,UD,Observational,images/Observational_trial.png,-0.5,87,557.3762893847534,None,558.3557631300946,559.6194360405898,559.1029816936007,559.6023942358825,None,561.3675856870486,None,560.1023361617163,561.1179114949709,556.8717311553282,None,557.3762893847534,None,0.3,0.7,?,561.3740351589686,None,561.8741465665526,None,561.3740351589686,None,561.3740351589686,None,,3,1,23,M,2021_Aug_02_1331,Social Reinforcement Learning,2021.1.4,60.00488336799254,
87,0,87,0,,,,,,,Social,UD,Private,images/Private_trial.png,0.5,88,563.8843245579446,None,564.8814635163862,566.1466368736974,565.6307518115582,566.1300280573278,d,566.1300280573278,None,570.0767708077365,None,563.389200812564,None,563.8843245579446,None,0.3,0.7,1,570.1022796677998,None,570.592422467038,None,570.1022796677998,None,570.1022796677998,None,3.92770319439569,3,1,23,M,2021_Aug_02_1331,Social Reinforcement Learning,2021.1.4,60.00488336799254,
88,0,88,0,,,,,,,Social,UD,Observational,images/Observational_trial.png,-0.5,89,572.6073321202284,None,573.6063361680372,574.8715020191639,574.3705076472215,574.8715020191639,None,576.6201759133646,None,575.3545352763022,576.3537621392779,572.1211095247163,None,572.6073321202284,None,0.3,0.7,?,576.6364189810074,None,577.1195193987469,None,576.6364189810074,None,576.6364189810074,None,,3,1,23,M,2021_Aug_02_1331,Social Reinforcement Learning,2021.1.4,60.00488336799254,
89,0,89,0,,,,,,,Social,UD,Observational,images/Observational_trial.png,-0.5,90,579.1340466315796,None,580.1334137416907,581.3824104808464,580.8826629256891,581.3824104808464,None,583.1471630177393,None,581.8816385290093,582.8806801077417,578.6361696966633,None,579.1340466315796,None,0.3,0.7,?,583.1510528806757,None,583.6467818615811,None,583.1510528806757,None,583.1510528806757,None,,3,1,23,M,2021_Aug_02_1331,Social Reinforcement Learning,2021.1.4,60.00488336799254,
90,0,90,0,,,,,,,Social,UD,Observational,images/Observational_trial.png,-0.5,91,585.6449724760059,None,586.6440417091026,587.9096555609367,587.393117065666,587.892749657678,None,589.6579766644572,None,588.3922728174184,589.3912274824334,585.1618843052001,None,585.6449724760059,None,0.3,0.7,?,589.662042330141,None,590.1405418517206,591.6559362464177,589.662042330141,None,589.662042330141,None,,3,1,23,M,2021_Aug_02_1331,Social Reinforcement Learning,2021.1.4,60.00488336799254,
91,0,91,0,,,,,,,Social,UD,Observational,images/Observational_trial.png,-0.5,92,592.1594214864926,None,593.1545476022484,594.4202503431115,593.9037983664957,594.4034412301289,None,596.1754218278265,None,594.9029327848812,595.9020478452112,591.6725347911661,None,592.1594214864926,None,0.3,0.7,?,596.1857251329975,None,596.6848101685891,None,596.1857251329975,None,596.1857251329975,None,,3,1,23,M,2021_Aug_02_1331,Social Reinforcement Learning,2021.1.4,60.00488336799254,
92,0,92,0,,,,,,,Social,UD,Private,images/Private_trial.png,0.5,93,598.6865026157075,None,599.6818653738119,600.9476893988176,600.4476064357232,600.9706832129314,d,600.9476893988176,None,601.4967931998708,None,598.2002255015905,None,598.6865026157075,None,0.3,0.7,-1,601.5071719619509,None,601.9998609380518,None,601.5071719619509,None,601.5071719619509,None,0.5229329745116047,3,1,23,M,2021_Aug_02_1331,Social Reinforcement Learning,2021.1.4,60.00488336799254,
93,0,93,0,,,,,,,Social,UD,Private,images/Private_trial.png,0.5,94,604.0010350633638,None,604.9939282867017,606.2592964097521,605.7430154951353,606.2425959389166,d,606.2425959389166,None,608.2267653163699,None,603.5118585866403,None,604.0010350633638,None,0.3,0.7,-1,608.2539871667941,None,608.7466172786053,None,608.2539871667941,None,608.2539871667941,None,1.9623533232252157,3,1,23,M,2021_Aug_02_1331,Social Reinforcement Learning,2021.1.4,60.00488336799254,
94,0,94,0,,,,,,,Social,UD,Private,images/Private_trial.png,0.5,95,610.7559154661376,None,611.7539369938759,613.0031537827617,612.5204259088214,613.0202718345035,d,613.0031537827617,None,None,None,610.2620875252742,None,610.7559154661376,None,0.3,0.7,-1,613.4319540653096,None,613.9187728099123,None,613.4319540653096,None,613.4319540653096,None,0.3730439475266394,3,1,23,M,2021_Aug_02_1331,Social Reinforcement Learning,2021.1.4,60.00488336799254,
95,0,95,0,,,,,,,Social,UD,Observational,images/Observational_trial.png,-0.5,96,615.9568793392664,None,616.964062362963,618.2319486134493,617.6987365115838,618.2132435962367,None,619.9641890989651,None,618.7047774100183,619.7136169301602,615.4555084729018,None,615.9568793392664,None,0.3,0.7,?,619.9876416594834,None,620.4793591772586,None,619.9876416594834,None,619.9876416594834,None,,3,1,23,M,2021_Aug_02_1331,Social Reinforcement Learning,2021.1.4,60.00488336799254,
96,0,96,0,,,,,,,Social,UD,Observational,images/Observational_trial.png,-0.5,97,622.478440657289,None,623.4764989258256,624.7266883582233,624.2306405620002,624.7428985566794,None,626.4911287958575,None,625.2270233710988,626.2406676395731,621.9947997942518,None,622.478440657289,None,0.3,0.7,?,626.5006972850524,None,627.0047119086803,None,626.5006972850524,None,626.5006972850524,None,,3,1,23,M,2021_Aug_02_1331,Social Reinforcement Learning,2021.1.4,60.00488336799254,
97,0,97,0,,,,,,,Social,UD,Private,images/Private_trial.png,0.5,98,629.0058639105009,None,630.0043176364525,631.269424228226,630.756998727109,631.269424228226,d,631.2525285965885,None,None,None,628.5186109923725,None,629.0058639105009,None,0.3,0.7,1,631.6932550214397,None,632.1684609081849,None,631.6932550214397,None,631.6932550214397,None,0.3705210793423248,3,1,23,M,2021_Aug_02_1331,Social Reinforcement Learning,2021.1.4,60.00488336799254,
98,0,98,0,,,,,,,Social,UD,Observational,images/Observational_trial.png,-0.5,99,634.1836798951981,None,635.1828779186217,636.4475625838022,635.9314009780164,636.4327193010868,None,638.1960804283735,None,636.941106079772,637.9615651738313,633.6867096283804,None,634.1836798951981,None,0.3,0.7,?,638.2246632686038,None,638.7092755899666,640.210982654392,638.2246632686038,None,638.2246632686038,None,,3,1,23,M,2021_Aug_02_1331,Social Reinforcement Learning,2021.1.4,60.00488336799254,
99,0,99,0,,,,,,,Social,UD,Observational,images/Observational_trial.png,-0.5,100,640.728329842299,None,641.728185249478,642.9916748510414,642.4903608736568,642.9916748510414,None,644.7403807452929,None,643.4751549237017,644.4902751451264,640.2307847597585,None,640.728329842299,None,0.3,0.7,?,644.7453732272561,None,645.2389139577899,646.7383825989255,644.7453732272561,None,644.7453732272561,None,,3,1,23,M,2021_Aug_02_1331,Social Reinforcement Learning,2021.1.4,60.00488336799254,
