"trials.thisRepN	trials.thisTrialN	trials.thisN	trials.thisIndex	textbox.started	textbox.stopped	key_resp_2.keys	key_resp_2.rt	key_resp_2.started	key_resp_2.stopped	block_type	learning_type	trial_type	image_path	x_image	trial	person.started	person.stopped	text.started	text.stopped	text_2.started	text_2.stopped	key_resp.keys	key_resp.started	key_resp.stopped	text_4.started	text_4.stopped	line.started	line.stopped	text_5.started	text_5.stopped	reward_a	reward_d	reward	image.started	image.stopped	text_3.started	text_3.stopped	line_2.started	line_2.stopped	text_6.started	text_6.stopped	key_resp.rt	session	exp_id	age	sex(M or F)	date	expName	psychopyVersion	frameRate"
"				17.51572621	None	f	1.403680076	17.51572621	None																																		2	1	23	M	2021_Aug_01_2035	Social Reinforcement Learning	2021.1.4	60.05485302"
"0	0	0	0							Social	UD	Observational	images/Observational_trial.png	-0.5	1	19.50025956	None	20.51624018	21.77883158	21.26091871	21.76329263	None	23.5256189	None	22.26037313	23.27578368	19.01632749	None	19.50025956	None	0.3	0.7	?	23.54709211	None	24.03275138	None	23.54709211	None	23.54709211	None		2	1	23	M	2021_Aug_01_2035	Social Reinforcement Learning	2021.1.4	60.05485302"
"1	0	1	0							Social	UD	Observational	images/Observational_trial.png	-0.5	2	26.05696035	None	27.05590238	28.32515253	27.80488628	28.32515253	None	30.06980573	None	28.8044762	29.8198919	25.56848034	None	26.05696035	None	0.3	0.7	?	30.07681258	None	30.56913733	None	30.07681258	None	30.07681258	None		2	1	23	M	2021_Aug_01_2035	Social Reinforcement Learning	2021.1.4	60.05485302"
"2	0	2	0							Social	UD	Private	images/Private_trial.png	0.5	3	32.61754104	None	33.61641591	34.88175298	34.36575655	34.86527497	d	34.86527497	None	35.41462837	None	32.11882973	None	32.61754104	None	0.3	0.7	-1	35.43442731	None	35.91445103	None	35.43442731	None	35.43442731	None	0.520400181	2	1	23	M	2021_Aug_01_2035	Social Reinforcement Learning	2021.1.4	60.05485302"
"3	0	3	0							Social	UD	Private	images/Private_trial.png	0.5	4	37.92873132	None	38.92841764	40.19587106	39.67866455	40.19587106	d	40.17708786	None	40.68777937	None	37.43161092	None	37.92873132	None	0.3	0.7	1	40.71893593	None	41.19217565	42.69093713	40.71893593	None	40.71893593	None	0.491555167	2	1	23	M	2021_Aug_01_2035	Social Reinforcement Learning	2021.1.4	60.05485302"
"4	0	4	0							Social	UD	Observational	images/Observational_trial.png	-0.5	5	43.22411202	None	44.22322274	45.4873288	44.97701256	45.4873288	None	47.2365655	None	45.97133829	46.98754569	42.72821987	None	43.22411202	None	0.3	0.7	?	47.24708761	None	47.72245987	49.23496317	47.24708761	None	47.24708761	None		2	1	23	M	2021_Aug_01_2035	Social Reinforcement Learning	2021.1.4	60.05485302"
"5	0	5	0							Social	UD	Private	images/Private_trial.png	0.5	6	49.75327111	None	50.75007585	52.01561322	51.49941926	51.99887961	d	51.99887961	None	53.26414	None	49.254736	None	49.75327111	None	0.3	0.7	1	53.27452699	None	53.78043948	None	53.27452699	None	53.27452699	None	1.241462328	2	1	23	M	2021_Aug_01_2035	Social Reinforcement Learning	2021.1.4	60.05485302"
"6	0	6	0							Social	UD	Private	images/Private_trial.png	0.5	7	55.76210389	None	56.76145915	58.01022221	57.51885194	58.0271739	d	58.01022221	None	None	None	55.27921045	None	55.76210389	None	0.3	0.7	1	58.47496298	None	58.95904912	None	58.47496298	None	58.47496298	None	0.433483509	2	1	23	M	2021_Aug_01_2035	Social Reinforcement Learning	2021.1.4	60.05485302"
"7	0	7	0							Social	UD	Observational	images/Observational_trial.png	-0.5	8	60.97389118	None	61.97514353	63.23883319	62.74246223	63.25545343	None	65.00350495	None	63.73830895	64.75400592	60.48118757	None	60.97389118	None	0.3	0.7	?	65.01751149	None	65.50324661	None	65.01751149	None	65.01751149	None		2	1	23	M	2021_Aug_01_2035	Social Reinforcement Learning	2021.1.4	60.05485302"
"8	0	8	0							Social	UD	Observational	images/Observational_trial.png	-0.5	9	67.50200968	None	68.51851534	69.78234565	69.26671268	69.78234565	None	71.53825534	None	70.26524502	71.28059988	67.02057045	None	67.50200968	None	0.3	0.7	?	71.55778761	None	72.03020758	73.52989746	71.55778761	None	71.55778761	None		2	1	23	M	2021_Aug_01_2035	Social Reinforcement Learning	2021.1.4	60.05485302"
"9	0	9	0							Social	UD	Observational	images/Observational_trial.png	-0.5	10	74.07167955	None	75.0612598	76.32592685	75.81208153	76.32592685	None	78.09132236	None	76.82572932	77.84128368	73.56981881	None	74.07167955	None	0.3	0.7	?	78.09948516	None	78.59121296	80.09183598	78.09948516	None	78.09948516	None		2	1	23	M	2021_Aug_01_2035	Social Reinforcement Learning	2021.1.4	60.05485302"
"10	0	10	0							Social	UD	Private	images/Private_trial.png	0.5	11	80.60884969	None	81.64292492	82.89567021	82.37043921	82.87904484	d	82.87904484	None	None	None	80.11419764	None	80.60884969	None	0.3	0.7	-1	83.30443907	None	83.79062535	None	83.30443907	None	83.30443907	None	0.361327912	2	1	23	M	2021_Aug_01_2035	Social Reinforcement Learning	2021.1.4	60.05485302"
"11	0	11	0							Social	UD	Private	images/Private_trial.png	0.5	12	85.80055996	None	86.79959285	88.06491491	87.54900263	88.06491491	d	88.06491491	None	None	None	85.30438494	None	85.80055996	None	0.3	0.7	1	88.44093239	None	88.93396825	None	88.44093239	None	88.44093239	None	0.331609022	2	1	23	M	2021_Aug_01_2035	Social Reinforcement Learning	2021.1.4	60.05485302"
"12	0	12	0							Social	UD	Observational	images/Observational_trial.png	-0.5	13	90.94614167	None	91.94473249	93.21030818	92.69423906	93.19394197	None	94.95947417	None	93.69357377	94.70968833	90.44993268	None	90.94614167	None	0.3	0.7	?	94.99421591	None	95.46469731	96.97151331	94.99421591	None	94.99421591	None		2	1	23	M	2021_Aug_01_2035	Social Reinforcement Learning	2021.1.4	60.05485302"
"13	0	13	0							Social	UD	Private	images/Private_trial.png	0.5	14	97.49017364	None	98.48888969	99.75410548	99.23852702	99.75410548	d	99.73748801	None	None	None	96.99225917	None	97.49017364	None	0.3	0.7	1	99.94842987	None	100.4368486	None	99.94842987	None	99.94842987	None	0.184095459	2	1	23	M	2021_Aug_01_2035	Social Reinforcement Learning	2021.1.4	60.05485302"
"14	0	14	0							Social	UD	Private	images/Private_trial.png	0.5	15	102.4352838	None	103.4339501	104.699429	104.1831789	104.699429	d	104.6828538	None	105.267453	None	101.9521466	None	102.4352838	None	0.3	0.7	1	105.2931395	None	105.7684142	107.2806256	105.2931395	None	105.2931395	None	0.55557645	2	1	23	M	2021_Aug_01_2035	Social Reinforcement Learning	2021.1.4	60.05485302"
"15	0	15	0							Social	UD	Private	images/Private_trial.png	0.5	16	107.797055	None	108.7965406	110.0614522	109.5451903	110.0449762	d	110.0449762	None	None	None	107.2988039	None	107.797055	None	0.3	0.7	-1	110.352377	None	110.8443284	None	110.352377	None	110.352377	None	0.281251728	2	1	23	M	2021_Aug_01_2035	Social Reinforcement Learning	2021.1.4	60.05485302"
"16	0	16	0							Social	UD	Private	images/Private_trial.png	0.5	17	112.8431424	None	113.8414761	115.1069992	114.5905678	115.0900215	d	115.1069992	None	115.8226786	None	112.3593384	None	112.8431424	None	0.3	0.7	-1	115.8322056	None	116.3222058	None	115.8322056	None	115.8322056	None	0.700256632	2	1	23	M	2021_Aug_01_2035	Social Reinforcement Learning	2021.1.4	60.05485302"
"17	0	17	0							Social	UD	Private	images/Private_trial.png	0.5	18	118.3206386	None	119.319355	120.5848501	120.0787662	120.5848501	d	120.5682113	None	None	None	117.8374907	None	118.3206386	None	0.3	0.7	1	121.0293238	None	121.5173693	123.0187962	121.0293238	None	121.0293238	None	0.426562033	2	1	23	M	2021_Aug_01_2035	Social Reinforcement Learning	2021.1.4	60.05485302"
"18	0	18	0							Social	UD	Private	images/Private_trial.png	0.5	19	123.5323729	None	124.5337114	125.7968357	125.2803929	125.7800938	d	125.7800938	None	126.3462958	None	123.0389685	None	123.5323729	None	0.3	0.7	-1	126.3541433	None	126.8601708	None	126.3541433	None	126.3541433	None	0.547071568	2	1	23	M	2021_Aug_01_2035	Social Reinforcement Learning	2021.1.4	60.05485302"
"19	0	19	0							Social	UD	Private	images/Private_trial.png	0.5	20	128.8444722	None	129.8433724	131.0987875	130.59225	131.0987875	d	131.0987875	None	131.6580174	None	128.3609115	None	128.8444722	None	0.3	0.7	1	131.6771029	None	132.1575007	133.671367	131.6771029	None	131.6771029	None	0.535278589	2	1	23	M	2021_Aug_01_2035	Social Reinforcement Learning	2021.1.4	60.05485302"
"20	0	20	0							Social	UD	Observational	images/Observational_trial.png	-0.5	21	134.2082298	None	135.20421	136.4534803	135.9539765	136.4534803	None	138.2216144	None	136.9579248	137.9686175	133.7150027	None	134.2082298	None	0.3	0.7	?	138.2673586	None	138.7601531	None	138.2673586	None	138.2673586	None		2	1	23	M	2021_Aug_01_2035	Social Reinforcement Learning	2021.1.4	60.05485302"
"21	0	21	0							Social	UD	Observational	images/Observational_trial.png	-0.5	22	140.7492383	None	141.7632847	143.0144225	142.4975656	142.9990005	None	144.7624602	None	143.4981049	144.5107571	140.2644075	None	140.7492383	None	0.3	0.7	?	144.776178	None	145.2725055	None	144.776178	None	144.776178	None		2	1	23	M	2021_Aug_01_2035	Social Reinforcement Learning	2021.1.4	60.05485302"
"22	0	22	0							Social	UD	Private	images/Private_trial.png	0.5	23	147.2933675	None	148.2929084	149.5585706	149.0462791	149.5585706	d	149.541551	None	None	None	146.7974631	None	147.2933675	None	0.3	0.7	-1	149.7507186	None	150.2404269	None	149.7507186	None	149.7507186	None	0.154248965	2	1	23	M	2021_Aug_01_2035	Social Reinforcement Learning	2021.1.4	60.05485302"
"23	0	23	0							Social	UD	Private	images/Private_trial.png	0.5	24	152.2580944	None	153.2383528	154.4870333	153.9871641	154.4870333	d	154.4870333	None	155.6355997	None	151.7557003	None	152.2580944	None	0.3	0.7	1	155.6820123	None	156.1685454	None	155.6820123	None	155.6820123	None	1.120928695	2	1	23	M	2021_Aug_01_2035	Social Reinforcement Learning	2021.1.4	60.05485302"
"24	0	24	0							Social	UD	Observational	images/Observational_trial.png	-0.5	25	158.1663497	None	159.1842705	160.4337075	159.9334732	160.4337075	None	162.1961847	None	160.9303598	161.929638	157.6733379	None	158.1663497	None	0.3	0.7	?	162.2213422	None	162.7121274	None	162.2213422	None	162.2213422	None		2	1	23	M	2021_Aug_01_2035	Social Reinforcement Learning	2021.1.4	60.05485302"
"25	0	25	0							Social	UD	Private	images/Private_trial.png	0.5	26	164.7107408	None	165.7090922	166.9759498	166.458532	166.9582104	d	166.9582104	None	None	None	164.2138744	None	164.7107408	None	0.3	0.7	-1	167.3099845	None	167.7905301	None	167.3099845	None	167.3099845	None	0.258963944	2	1	23	M	2021_Aug_01_2035	Social Reinforcement Learning	2021.1.4	60.05485302"
"26	0	26	0							Social	UD	Observational	images/Observational_trial.png	-0.5	27	169.7760642	None	170.7711109	172.020397	171.5208841	172.020397	None	173.7850466	None	172.5199087	173.5352735	169.2718307	None	169.7760642	None	0.3	0.7	?	173.7964948	None	174.2917288	None	173.7964948	None	173.7964948	None		2	1	23	M	2021_Aug_01_2035	Social Reinforcement Learning	2021.1.4	60.05485302"
"27	0	27	0							Social	UD	Private	images/Private_trial.png	0.5	28	176.3167768	None	177.3153364	178.5807276	178.0645076	178.5640651	a	178.5640651	None	None	None	175.8227984	None	176.3167768	None	0.3	0.7	1	178.8416851	None	179.3320985	None	178.8416851	None	178.8416851	None	0.224817995	2	1	23	M	2021_Aug_01_2035	Social Reinforcement Learning	2021.1.4	60.05485302"
"28	0	28	0							Social	UD	Observational	images/Observational_trial.png	-0.5	29	181.3453184	None	182.3438389	183.6080343	183.0965337	183.6080343	None	185.3579181	None	184.1063916	185.1085514	180.8500513	None	181.3453184	None	0.3	0.7	?	185.3863464	None	185.8754861	None	185.3863464	None	185.3863464	None		2	1	23	M	2021_Aug_01_2035	Social Reinforcement Learning	2021.1.4	60.05485302"
"29	0	29	0							Social	UD	Private	images/Private_trial.png	0.5	30	187.8943574	None	188.8889451	190.1532597	189.6367351	190.1366944	a	190.1366944	None	None	None	187.4030199	None	187.8943574	None	0.3	0.7	-1	190.5347346	None	191.0189412	None	190.5347346	None	190.5347346	None	0.362237738	2	1	23	M	2021_Aug_01_2035	Social Reinforcement Learning	2021.1.4	60.05485302"
"30	0	30	0							Social	UD	Observational	images/Observational_trial.png	-0.5	31	193.0341922	None	194.0334301	195.2821031	194.7821608	195.2821031	None	197.0488698	None	195.7823464	196.7848278	192.5465821	None	193.0341922	None	0.3	0.7	?	197.1229739	None	197.5962006	None	197.1229739	None	197.1229739	None		2	1	23	M	2021_Aug_01_2035	Social Reinforcement Learning	2021.1.4	60.05485302"
"31	0	31	0							Social	UD	Observational	images/Observational_trial.png	-0.5	32	199.5948539	None	200.5941625	201.8588935	201.3425463	201.8422358	None	203.6072346	None	202.3419106	203.3575124	199.0970551	None	199.5948539	None	0.3	0.7	?	203.6114484	None	204.1068748	None	203.6114484	None	203.6114484	None		2	1	23	M	2021_Aug_01_2035	Social Reinforcement Learning	2021.1.4	60.05485302"
"32	0	32	0							Social	UD	Observational	images/Observational_trial.png	-0.5	33	206.1219092	None	207.1213174	208.3861619	207.8743693	208.3861619	None	210.135988	None	208.8700829	209.8787995	205.6236064	None	206.1219092	None	0.3	0.7	?	210.159064	None	210.6340771	212.1507432	210.159064	None	210.159064	None		2	1	23	M	2021_Aug_01_2035	Social Reinforcement Learning	2021.1.4	60.05485302"
"33	0	33	0							Social	UD	Observational	images/Observational_trial.png	-0.5	34	212.6497745	None	213.6484036	214.9154541	214.3974349	214.8967823	None	216.6784085	None	215.4143783	216.428691	212.166006	None	212.6497745	None	0.3	0.7	?	216.6829597	None	217.1779736	None	216.6829597	None	216.6829597	None		2	1	23	M	2021_Aug_01_2035	Social Reinforcement Learning	2021.1.4	60.05485302"
"34	0	34	0							Social	UD	Observational	images/Observational_trial.png	-0.5	35	219.1765352	None	220.1757478	221.4403876	220.9246934	221.4239823	None	223.1923099	None	221.9235457	222.9391044	218.6933205	None	219.1765352	None	0.3	0.7	?	223.2065519	None	223.6885024	225.2038319	223.2065519	None	223.2065519	None		2	1	23	M	2021_Aug_01_2035	Social Reinforcement Learning	2021.1.4	60.05485302"
"35	0	35	0							Social	UD	Observational	images/Observational_trial.png	-0.5	36	225.7239414	None	226.7191358	227.9681087	227.4682367	227.9681087	None	229.733057	None	228.4676504	229.4833011	225.2220458	None	225.7239414	None	0.3	0.7	?	229.7373853	None	230.2323111	None	229.7373853	None	229.7373853	None		2	1	23	M	2021_Aug_01_2035	Social Reinforcement Learning	2021.1.4	60.05485302"
"36	0	36	0							Social	UD	Private	images/Private_trial.png	0.5	37	232.2473069	None	233.246527	234.5116867	233.9961932	234.5116867	a	234.4947153	None	None	None	231.7509691	None	232.2473069	None	0.3	0.7	-1	234.8943515	None	235.3772074	None	234.8943515	None	234.8943515	None	0.364956156	2	1	23	M	2021_Aug_01_2035	Social Reinforcement Learning	2021.1.4	60.05485302"
"37	0	37	0							Social	UD	Observational	images/Observational_trial.png	-0.5	38	237.3925733	None	238.4276994	239.690804	239.1420384	239.6409038	None	241.4053982	None	240.1421356	241.1552315	236.8969281	None	237.3925733	None	0.3	0.7	?	241.4175914	None	241.9047333	None	241.4175914	None	241.4175914	None		2	1	23	M	2021_Aug_01_2035	Social Reinforcement Learning	2021.1.4	60.05485302"
"38	0	38	0							Social	UD	Private	images/Private_trial.png	0.5	39	243.9232775	None	244.9209249	246.1842744	245.6681393	246.1677206	a	246.1677206	None	None	None	243.4233174	None	243.9232775	None	0.3	0.7	-1	246.5936118	None	247.0941953	None	246.5936118	None	246.5936118	None	0.39727534	2	1	23	M	2021_Aug_01_2035	Social Reinforcement Learning	2021.1.4	60.05485302"
"39	0	39	0							Social	UD	Observational	images/Observational_trial.png	-0.5	40	249.11494	None	250.1141937	251.3797176	250.8632096	251.3797176	None	253.1275574	None	251.8646101	252.8778755	248.6252384	None	249.11494	None	0.3	0.7	?	253.1407055	None	253.6364194	None	253.1407055	None	253.1407055	None		2	1	23	M	2021_Aug_01_2035	Social Reinforcement Learning	2021.1.4	60.05485302"
"40	0	40	0							Social	SD	Observational	images/Observational_trial.png	-0.5	41	255.6506176	None	256.6412416	257.8904416	257.3901852	257.8904416	None	259.6550098	None	258.393399	259.4054361	255.1448386	None	255.6506176	None	0.3	0.7	?	259.6683179	None	260.1638229	None	259.6683179	None	259.6683179	None		2	1	23	M	2021_Aug_01_2035	Social Reinforcement Learning	2021.1.4	60.05485302"
"41	0	41	0							Social	SD	Private	images/Private_trial.png	0.5	42	262.1860471	None	263.1853806	264.4486918	263.9342934	264.4486918	d	264.4486918	None	None	None	261.6996289	None	262.1860471	None	0.3	0.7	1	264.891477	None	265.3674901	266.886954	264.891477	None	264.891477	None	0.380374218	2	1	23	M	2021_Aug_01_2035	Social Reinforcement Learning	2021.1.4	60.05485302"
"42	0	42	0							Social	SD	Observational	images/Observational_trial.png	-0.5	43	267.41444	None	268.4155181	269.6789356	269.1627693	269.6623726	None	271.4269792	None	270.1622652	271.1776579	266.9085954	None	267.41444	None	0.3	0.7	?	271.4390341	None	271.9197772	273.4260086	271.4390341	None	271.4390341	None		2	1	23	M	2021_Aug_01_2035	Social Reinforcement Learning	2021.1.4	60.05485302"
"43	0	43	0							Social	SD	Private	images/Private_trial.png	0.5	44	273.9670373	None	274.9575127	276.2226278	275.7098831	276.2226278	d	276.2058464	None	None	None	273.4645887	None	273.9670373	None	0.3	0.7	1	276.6215521	None	277.1050907	None	276.6215521	None	276.6215521	None	0.360340654	2	1	23	M	2021_Aug_01_2035	Social Reinforcement Learning	2021.1.4	60.05485302"
"44	0	44	0							Social	SD	Private	images/Private_trial.png	0.5	45	279.1137003	None	280.1028538	281.3680582	280.8518575	281.3511215	d	281.3680582	None	None	None	278.6208473	None	279.1137003	None	0.3	0.7	1	281.7389383	None	282.2337966	None	281.7389383	None	281.7389383	None	0.347749651	2	1	23	M	2021_Aug_01_2035	Social Reinforcement Learning	2021.1.4	60.05485302"
"45	0	45	0							Social	SD	Private	images/Private_trial.png	0.5	46	284.2410677	None	285.2311888	286.4964658	285.9803236	286.4797776	d	286.4797776	None	None	None	283.748916	None	284.2410677	None	0.3	0.7	1	286.6509289	None	287.144024	288.6444428	286.6509289	None	286.6509289	None	0.135511202	2	1	23	M	2021_Aug_01_2035	Social Reinforcement Learning	2021.1.4	60.05485302"
"46	0	46	0							Social	SD	Observational	images/Observational_trial.png	-0.5	47	289.1608192	None	290.1600548	291.4256372	290.9090794	291.4256372	None	293.175794	None	291.9103704	292.9237026	288.666501	None	289.1608192	None	0.3	0.7	?	293.2159062	None	293.6901593	None	293.2159062	None	293.2159062	None		2	1	23	M	2021_Aug_01_2035	Social Reinforcement Learning	2021.1.4	60.05485302"
"47	0	47	0							Social	SD	Private	images/Private_trial.png	0.5	48	295.7097606	None	296.7038616	297.9678507	297.452723	297.9678507	d	297.9678507	None	299.2668169	None	295.2082345	None	295.7097606	None	0.3	0.7	-1	299.3067486	None	299.7840381	None	299.3067486	None	299.3067486	None	1.281482839	2	1	23	M	2021_Aug_01_2035	Social Reinforcement Learning	2021.1.4	60.05485302"
"48	0	48	0							Social	SD	Observational	images/Observational_trial.png	-0.5	49	301.8008073	None	302.7980987	304.0630846	303.549709	304.0630846	None	305.8115932	None	304.548653	305.5619847	301.3049779	None	301.8008073	None	0.3	0.7	?	305.8269354	None	306.3112065	None	305.8269354	None	305.8269354	None		2	1	23	M	2021_Aug_01_2035	Social Reinforcement Learning	2021.1.4	60.05485302"
"49	0	49	0							Social	SD	Observational	images/Observational_trial.png	-0.5	50	308.3269094	None	309.32836	310.5909396	310.0757973	310.5743047	None	312.3389366	None	311.0734885	312.0724487	307.8285275	None	308.3269094	None	0.3	0.7	?	312.3531652	None	312.8384112	None	312.3531652	None	312.3531652	None		2	1	23	M	2021_Aug_01_2035	Social Reinforcement Learning	2021.1.4	60.05485302"
"50	0	50	0							Social	SD	Observational	images/Observational_trial.png	-0.5	51	314.8369186	None	315.8354154	317.0843097	316.5850022	317.0843097	None	318.8499256	None	317.5839043	318.5831545	314.3536953	None	314.8369186	None	0.3	0.7	?	318.8674198	None	319.3515573	320.864405	318.8674198	None	318.8674198	None		2	1	23	M	2021_Aug_01_2035	Social Reinforcement Learning	2021.1.4	60.05485302"
"51	0	51	0							Social	SD	Private	images/Private_trial.png	0.5	52	321.3839634	None	322.3793688	323.6284661	323.1288912	323.6284661	d	323.6284661	None	None	None	320.8951839	None	321.3839634	None	0.3	0.7	1	323.8751894	None	324.3609909	None	323.8751894	None	323.8751894	None	0.21250077	2	1	23	M	2021_Aug_01_2035	Social Reinforcement Learning	2021.1.4	60.05485302"
"52	0	52	0							Social	SD	Private	images/Private_trial.png	0.5	53	326.3762964	None	327.374826	328.6239331	328.1243294	328.6239331	d	328.6239331	None	None	None	325.8784838	None	326.3762964	None	0.3	0.7	1	328.9692895	None	329.4564808	None	328.9692895	None	328.9692895	None	0.310203804	2	1	23	M	2021_Aug_01_2035	Social Reinforcement Learning	2021.1.4	60.05485302"
"53	0	53	0							Social	SD	Observational	images/Observational_trial.png	-0.5	54	331.473536	None	332.4701768	333.735613	333.2193065	333.7189652	None	335.4841608	None	334.2186092	335.217362	330.9820903	None	331.473536	None	0.3	0.7	?	335.5116602	None	336.0000205	None	335.5116602	None	335.5116602	None		2	1	23	M	2021_Aug_01_2035	Social Reinforcement Learning	2021.1.4	60.05485302"
"54	0	54	0							Social	SD	Observational	images/Observational_trial.png	-0.5	55	337.9986821	None	338.9978698	340.2654248	339.7473389	340.2654248	None	342.0113761	None	340.7460498	341.7648602	337.5152474	None	337.9986821	None	0.3	0.7	?	342.0256608	None	342.5106113	None	342.0256608	None	342.0256608	None		2	1	23	M	2021_Aug_01_2035	Social Reinforcement Learning	2021.1.4	60.05485302"
"55	0	55	0							Social	SD	Private	images/Private_trial.png	0.5	56	344.5276535	None	345.5257766	346.7899936	346.2738333	346.7732865	d	346.7732865	None	None	None	344.0314892	None	344.5276535	None	0.3	0.7	-1	347.2733446	None	347.7559022	None	347.2733446	None	347.2733446	None	0.456653466	2	1	23	M	2021_Aug_01_2035	Social Reinforcement Learning	2021.1.4	60.05485302"
"56	0	56	0							Social	SD	Private	images/Private_trial.png	0.5	57	349.7550588	None	350.752797	352.0182408	351.5022684	352.0182408	d	352.0016095	None	352.6860225	None	349.2711026	None	349.7550588	None	0.3	0.7	1	352.7183011	None	353.2017409	None	352.7183011	None	352.7183011	None	0.663714241	2	1	23	M	2021_Aug_01_2035	Social Reinforcement Learning	2021.1.4	60.05485302"
"57	0	57	0							Social	SD	Private	images/Private_trial.png	0.5	58	355.1999647	None	356.1979507	357.4635418	356.9479459	357.4635418	d	357.4466402	None	358.0026295	None	354.7161851	None	355.1999647	None	0.3	0.7	1	358.0255415	None	358.5123524	360.0149902	358.0255415	None	358.0255415	None	0.532127185	2	1	23	M	2021_Aug_01_2035	Social Reinforcement Learning	2021.1.4	60.05485302"
"58	0	58	0							Social	SD	Observational	images/Observational_trial.png	-0.5	59	360.5645183	None	361.5599004	362.8251466	362.3089882	362.8083202	None	364.5737951	None	363.3090111	364.3238785	360.0669783	None	360.5645183	None	0.3	0.7	?	364.5918447	None	365.0730978	None	364.5918447	None	364.5918447	None		2	1	23	M	2021_Aug_01_2035	Social Reinforcement Learning	2021.1.4	60.05485302"
"59	0	59	0							Social	SD	Private	images/Private_trial.png	0.5	60	367.0909933	None	368.0888544	369.3520894	368.8412209	369.3520894	d	369.335756	None	372.2164695	None	366.5913485	None	367.0909933	None	0.3	0.7	1	372.2286777	None	372.7158695	None	372.2286777	None	372.2286777	None	2.863703811	2	1	23	M	2021_Aug_01_2035	Social Reinforcement Learning	2021.1.4	60.05485302"
"60	0	60	0							Social	SD	Private	images/Private_trial.png	0.5	61	374.7143019	None	375.7132846	376.9785343	376.4623779	376.962052	d	376.962052	None	377.9278254	None	374.2310197	None	374.7143019	None	0.3	0.7	1	377.9416988	None	378.4272135	None	377.9416988	None	377.9416988	None	0.944797673	2	1	23	M	2021_Aug_01_2035	Social Reinforcement Learning	2021.1.4	60.05485302"
"61	0	61	0							Social	SD	Observational	images/Observational_trial.png	-0.5	62	380.4426647	None	381.4407562	382.6896895	382.1902343	382.6896895	None	384.455072	None	383.189607	384.205215	379.9515422	None	380.4426647	None	0.3	0.7	?	384.4789452	None	384.9714011	None	384.4789452	None	384.4789452	None		2	1	23	M	2021_Aug_01_2035	Social Reinforcement Learning	2021.1.4	60.05485302"
"62	0	62	0							Social	SD	Observational	images/Observational_trial.png	-0.5	63	386.9863056	None	387.984772	389.2341241	388.7346345	389.2341241	None	391.0019776	None	389.7339886	390.7352271	386.4885523	None	386.9863056	None	0.3	0.7	?	391.0262672	None	391.4983127	393.0144154	391.0262672	None	391.0262672	None		2	1	23	M	2021_Aug_01_2035	Social Reinforcement Learning	2021.1.4	60.05485302"
"63	0	63	0							Social	SD	Private	images/Private_trial.png	0.5	64	393.5295273	None	394.5291587	395.7933015	395.2789655	395.7933015	d	395.7933015	None	None	None	393.0417027	None	393.5295273	None	0.3	0.7	-1	396.1231426	None	396.5935798	None	396.1231426	None	396.1231426	None	0.263848483	2	1	23	M	2021_Aug_01_2035	Social Reinforcement Learning	2021.1.4	60.05485302"
"64	0	64	0							Social	SD	Observational	images/Observational_trial.png	-0.5	65	398.6081485	None	399.6079497	400.8735559	400.3586403	400.8735559	None	402.6215268	None	401.358747	402.3711586	398.1175557	None	398.6081485	None	0.3	0.7	?	402.704675	None	403.1723451	None	402.704675	None	402.704675	None		2	1	23	M	2021_Aug_01_2035	Social Reinforcement Learning	2021.1.4	60.05485302"
"65	0	65	0							Social	SD	Observational	images/Observational_trial.png	-0.5	66	405.1529318	None	406.1658582	407.4169711	406.900422	407.4169711	None	409.1653944	None	407.8994707	408.8989895	404.6574592	None	405.1529318	None	0.3	0.7	?	409.1812909	None	409.6498389	411.1489547	409.1812909	None	409.1812909	None		2	1	23	M	2021_Aug_01_2035	Social Reinforcement Learning	2021.1.4	60.05485302"
"66	0	66	0							Social	SD	Private	images/Private_trial.png	0.5	67	411.6961334	None	412.6949849	413.9610355	413.4440384	413.9439882	d	413.9439882	None	414.7937056	None	411.2022707	None	411.6961334	None	0.3	0.7	1	414.8338609	None	415.3142662	None	414.8338609	None	414.8338609	None	0.827387396	2	1	23	M	2021_Aug_01_2035	Social Reinforcement Learning	2021.1.4	60.05485302"
"67	0	67	0							Social	SD	Observational	images/Observational_trial.png	-0.5	68	417.3278832	None	418.3399377	419.6055509	419.0868337	419.5887565	None	421.337463	None	420.0719438	421.0731749	416.83748	None	417.3278832	None	0.3	0.7	?	421.3716726	None	421.8437587	423.3519203	421.3716726	None	421.3716726	None		2	1	23	M	2021_Aug_01_2035	Social Reinforcement Learning	2021.1.4	60.05485302"
"68	0	68	0							Social	SD	Private	images/Private_trial.png	0.5	69	423.8688104	None	424.8675059	426.1164064	425.6170946	426.1164064	d	426.1164064	None	None	None	423.3814855	None	423.8688104	None	0.3	0.7	1	426.2625286	None	426.7486746	None	426.2625286	None	426.2625286	None	0.087078647	2	1	23	M	2021_Aug_01_2035	Social Reinforcement Learning	2021.1.4	60.05485302"
"69	0	69	0							Social	SD	Observational	images/Observational_trial.png	-0.5	70	428.7636664	None	429.7640523	431.0282907	430.5308997	431.0449118	None	432.7936499	None	431.5281971	432.5418137	428.2704697	None	428.7636664	None	0.3	0.7	?	432.8323091	None	433.3240483	None	432.8323091	None	432.8323091	None		2	1	23	M	2021_Aug_01_2035	Social Reinforcement Learning	2021.1.4	60.05485302"
"70	0	70	0							Social	SD	Observational	images/Observational_trial.png	-0.5	71	435.3076861	None	436.3237552	437.5885175	437.0728572	437.571834	None	439.3367025	None	438.0743154	439.0749305	434.8254374	None	435.3076861	None	0.3	0.7	?	439.3414291	None	439.8364789	None	439.3414291	None	439.3414291	None		2	1	23	M	2021_Aug_01_2035	Social Reinforcement Learning	2021.1.4	60.05485302"
"71	0	71	0							Social	SD	Private	images/Private_trial.png	0.5	72	441.8513171	None	442.8505629	444.1157546	443.5992378	444.0994409	d	444.0994409	None	445.930948	None	441.3568313	None	441.8513171	None	0.3	0.7	-1	445.9581393	None	446.4469914	None	445.9581393	None	445.9581393	None	1.800847565	2	1	23	M	2021_Aug_01_2035	Social Reinforcement Learning	2021.1.4	60.05485302"
"72	0	72	0							Social	SD	Observational	images/Observational_trial.png	-0.5	73	448.4616822	None	449.4615945	450.7248856	450.2099424	450.7248856	None	452.4745872	None	451.2129025	452.2207947	447.9678195	None	448.4616822	None	0.3	0.7	?	452.4863423	None	452.9741345	None	452.4863423	None	452.4863423	None		2	1	23	M	2021_Aug_01_2035	Social Reinforcement Learning	2021.1.4	60.05485302"
"73	0	73	0							Social	SD	Private	images/Private_trial.png	0.5	74	454.9891903	None	455.9882667	457.261631	456.7381407	457.261631	d	457.2366663	None	None	None	454.4924998	None	454.9891903	None	0.3	0.7	-1	457.5983845	None	458.086029	None	457.5983845	None	457.5983845	None	0.332837268	2	1	23	M	2021_Aug_01_2035	Social Reinforcement Learning	2021.1.4	60.05485302"
"74	0	74	0							Social	SD	Private	images/Private_trial.png	0.5	75	460.0850567	None	461.0908756	462.3576361	461.832761	462.3372608	d	462.3372608	None	None	None	459.6011875	None	460.0850567	None	0.3	0.7	-1	462.5850188	None	463.0690532	464.5798364	462.5850188	None	462.5850188	None	0.209313415	2	1	23	M	2021_Aug_01_2035	Social Reinforcement Learning	2021.1.4	60.05485302"
"75	0	75	0							Social	SD	Observational	images/Observational_trial.png	-0.5	76	465.0976979	None	466.0971934	467.3608108	466.844637	467.3440665	None	469.1091878	None	467.8466328	468.8591638	464.5998613	None	465.0976979	None	0.3	0.7	?	469.1205313	None	469.6084783	None	469.1205313	None	469.1205313	None		2	1	23	M	2021_Aug_01_2035	Social Reinforcement Learning	2021.1.4	60.05485302"
"76	0	76	0							Social	SD	Private	images/Private_trial.png	0.5	77	471.6237941	None	472.6223865	473.8879096	473.3718429	473.8712724	d	473.8712724	None	None	None	471.1281078	None	471.6237941	None	0.3	0.7	1	474.1797095	None	474.6704291	None	474.1797095	None	474.1797095	None	0.254030417	2	1	23	M	2021_Aug_01_2035	Social Reinforcement Learning	2021.1.4	60.05485302"
"77	0	77	0							Social	SD	Observational	images/Observational_trial.png	-0.5	78	476.6870572	None	477.68437	478.9335831	478.4340315	478.9335831	None	480.6983591	None	479.4339825	480.4336846	476.18866	None	476.6870572	None	0.3	0.7	?	480.7273977	None	481.2167844	None	480.7273977	None	480.7273977	None		2	1	23	M	2021_Aug_01_2035	Social Reinforcement Learning	2021.1.4	60.05485302"
"78	0	78	0							Social	SD	Observational	images/Observational_trial.png	-0.5	79	483.2292869	None	484.2449041	485.493696	484.9940682	485.493696	None	487.2587399	None	485.9946327	487.0089118	482.7438189	None	483.2292869	None	0.3	0.7	?	487.2627332	None	487.758143	None	487.2627332	None	487.2627332	None		2	1	23	M	2021_Aug_01_2035	Social Reinforcement Learning	2021.1.4	60.05485302"
"79	0	79	0							Social	SD	Private	images/Private_trial.png	0.5	80	489.7951863	None	490.7729159	492.0376466	491.5401434	492.0540381	d	492.0207735	None	None	None	489.2786258	None	489.7951863	None	0.3	0.7	1	492.3667079	None	492.8534314	None	492.3667079	None	492.3667079	None	0.303912846	2	1	23	M	2021_Aug_01_2035	Social Reinforcement Learning	2021.1.4	60.05485302"
"80	0	80	0							Private	PL	Private	images/Private_trial.png	0.5	81	494.866856	None	495.8510824	497.1161153	496.601577	497.1161153	d	497.0993737	None	None	None	494.3685366	None	494.866856	None	0.3	0.7	1	497.4146339	None	497.8990831	None	497.4146339	None	497.4146339	None	0.285177849	2	1	23	M	2021_Aug_01_2035	Social Reinforcement Learning	2021.1.4	60.05485302"
"81	0	81	0							Private	PL	Private	images/Private_trial.png	0.5	82	499.8978739	None	500.8966468	502.1627594	501.6494059	502.1627594	d	502.1627594	None	None	None	499.4143294	None	499.8978739	None	0.3	0.7	1	502.5217355	None	503.0105912	None	502.5217355	None	502.5217355	None	0.330618208	2	1	23	M	2021_Aug_01_2035	Social Reinforcement Learning	2021.1.4	60.05485302"
"82	0	82	0							Private	PL	Private	images/Private_trial.png	0.5	83	505.0092741	None	506.0082434	507.2732458	506.7572419	507.2568235	d	507.2568235	None	None	None	504.5257635	None	505.0092741	None	0.3	0.7	-1	507.6932376	None	508.172276	509.6877442	507.6932376	None	507.6932376	None	0.387960977	2	1	23	M	2021_Aug_01_2035	Social Reinforcement Learning	2021.1.4	60.05485302"
"83	0	83	0							Private	PL	Private	images/Private_trial.png	0.5	84	510.2002005	None	511.1866041	512.4518029	511.9357701	512.4352704	d	512.4352704	None	514.1501853	None	509.7044435	None	510.2002005	None	0.3	0.7	1	514.158004	None	514.6609366	None	514.158004	None	514.158004	None	1.686521927	2	1	23	M	2021_Aug_01_2035	Social Reinforcement Learning	2021.1.4	60.05485302"
"84	0	84	0							Private	PL	Private	images/Private_trial.png	0.5	85	516.6484708	None	517.6470474	518.9123864	518.3964327	518.8959246	d	518.8959246	None	519.5292629	None	516.1650681	None	516.6484708	None	0.3	0.7	-1	519.5576971	None	520.0454423	None	519.5576971	None	519.5576971	None	0.615712699	2	1	23	M	2021_Aug_01_2035	Social Reinforcement Learning	2021.1.4	60.05485302"
"85	0	85	0							Private	PL	Private	images/Private_trial.png	0.5	86	522.0428266	None	523.042383	524.3073254	523.7912409	524.2907684	d	524.2907684	None	None	None	521.5599237	None	522.0428266	None	0.3	0.7	1	524.6146903	None	525.1093392	None	524.6146903	None	524.6146903	None	0.292897349	2	1	23	M	2021_Aug_01_2035	Social Reinforcement Learning	2021.1.4	60.05485302"
"86	0	86	0							Private	PL	Private	images/Private_trial.png	0.5	87	527.1213238	None	528.1236641	529.3860386	528.8701741	529.3694243	d	529.3694243	None	None	None	526.6255011	None	527.1213238	None	0.3	0.7	1	529.6102269	None	530.1021005	None	529.6102269	None	529.6102269	None	0.209037662	2	1	23	M	2021_Aug_01_2035	Social Reinforcement Learning	2021.1.4	60.05485302"
"87	0	87	0							Private	PL	Private	images/Private_trial.png	0.5	88	532.1034686	None	533.09977	534.354508	533.8484055	534.354508	d	534.354508	None	536.5462478	None	531.6175683	None	532.1034686	None	0.3	0.7	-1	536.5651488	None	537.0454301	538.560847	536.5651488	None	536.5651488	None	2.175559763	2	1	23	M	2021_Aug_01_2035	Social Reinforcement Learning	2021.1.4	60.05485302"
"88	0	88	0							Private	PL	Private	images/Private_trial.png	0.5	89	539.0641224	None	540.0803251	541.3433329	540.8260869	541.3293185	d	541.3110255	None	541.9577904	None	538.578639	None	539.0641224	None	0.3	0.7	1	541.9736229	None	542.4622076	None	541.9736229	None	541.9736229	None	0.627775899	2	1	23	M	2021_Aug_01_2035	Social Reinforcement Learning	2021.1.4	60.05485302"
"89	0	89	0							Private	PL	Private	images/Private_trial.png	0.5	90	544.4558377	None	545.4545312	546.7197272	546.2036	546.7033018	d	546.7033018	None	547.4044544	None	543.9726459	None	544.4558377	None	0.3	0.7	-1	547.4356184	None	547.9209857	None	547.4356184	None	547.4356184	None	0.674492307	2	1	23	M	2021_Aug_01_2035	Social Reinforcement Learning	2021.1.4	60.05485302"
"90	0	90	0							Private	PL	Private	images/Private_trial.png	0.5	91	549.9173512	None	550.9322339	552.1978934	551.668745	552.1813399	d	552.1646237	None	None	None	549.43383	None	549.9173512	None	0.3	0.7	1	552.46944	None	552.9474264	554.4624755	552.46944	None	552.46944	None	0.263515446	2	1	23	M	2021_Aug_01_2035	Social Reinforcement Learning	2021.1.4	60.05485302"
"91	0	91	0							Private	PL	Private	images/Private_trial.png	0.5	92	554.9630823	None	555.9670815	557.2267455	556.7117245	557.2267455	d	557.2099159	None	557.8992297	None	554.4795275	None	554.9630823	None	0.3	0.7	1	557.906442	559.90746	558.4088293	None	557.906442	559.90746	557.906442	559.90746	0.673396801	2	1	23	M	2021_Aug_01_2035	Social Reinforcement Learning	2021.1.4	60.05485302"
"92	0	92	0							Private	PL	Private	images/Private_trial.png	0.5	93	560.407507	None	561.4062788	562.6714689	562.1554294	562.6548036	d	562.6548036	None	563.9865141	None	559.9241684	None	560.407507	None	0.3	0.7	1	563.9908223	None	564.4874406	None	563.9908223	None	563.9908223	None	1.303162625	2	1	23	M	2021_Aug_01_2035	Social Reinforcement Learning	2021.1.4	60.05485302"
"93	0	93	0							Private	PL	Private	images/Private_trial.png	0.5	94	566.5015372	None	567.5008379	568.7659233	568.249488	568.7491799	d	568.7491799	None	None	None	566.0062937	None	566.5015372	None	0.3	0.7	1	569.0859855	None	569.5814103	571.0857279	569.0859855	None	569.0859855	None	0.301726181	2	1	23	M	2021_Aug_01_2035	Social Reinforcement Learning	2021.1.4	60.05485302"
"94	0	94	0							Private	PL	Private	images/Private_trial.png	0.5	95	571.5972452	None	572.5959924	573.8641301	573.344938	573.8450775	d	573.8450775	None	574.5608536	None	571.1024639	None	571.5972452	None	0.3	0.7	1	574.57699	None	575.0568624	576.5586354	574.57699	None	574.57699	None	0.692947206	2	1	23	M	2021_Aug_01_2035	Social Reinforcement Learning	2021.1.4	60.05485302"
"95	0	95	0							Private	PL	Private	images/Private_trial.png	0.5	96	577.074733	None	578.0745153	579.3392681	578.826506	579.3392681	d	579.32267	None	580.5883057	None	576.591979	None	577.074733	None	0.3	0.7	1	580.6019768	None	581.0717013	582.5862648	580.6019768	None	580.6019768	None	1.237954182	2	1	23	M	2021_Aug_01_2035	Social Reinforcement Learning	2021.1.4	60.05485302"
"96	0	96	0							Private	PL	Private	images/Private_trial.png	0.5	97	583.086855	None	584.0946717	585.3505269	584.8509939	585.3505269	d	585.3505269	None	None	None	582.6032181	None	583.086855	None	0.3	0.7	-1	585.7434724	None	586.2329254	None	585.7434724	None	585.7434724	None	0.353876264	2	1	23	M	2021_Aug_01_2035	Social Reinforcement Learning	2021.1.4	60.05485302"
"97	0	97	0							Private	PL	Private	images/Private_trial.png	0.5	98	588.2310679	None	589.2315242	590.495471	589.9960616	590.495471	d	590.495471	None	591.0946507	None	587.755308	None	588.2310679	None	0.3	0.7	1	591.104348	None	591.6312031	None	591.104348	None	591.104348	None	0.581944824	2	1	23	M	2021_Aug_01_2035	Social Reinforcement Learning	2021.1.4	60.05485302"
"98	0	98	0							Private	PL	Private	images/Private_trial.png	0.5	99	593.6097666	None	594.6085621	595.8737767	595.3576392	595.8575555	d	595.8575555	None	598.1801037	None	593.1170958	None	593.6097666	None	0.3	0.7	1	598.1887098	None	598.6878165	None	598.1887098	None	598.1887098	None	2.30213349	2	1	23	M	2021_Aug_01_2035	Social Reinforcement Learning	2021.1.4	60.05485302"
"99	0	99	0							Private	PL	Private	images/Private_trial.png	0.5	100	600.6865251	None	601.6847837	602.9344234	602.4365595	602.9522031	d	602.9344234	None	604.3496633	None	600.2034468	None	600.6865251	None	0.3	0.7	1	604.3676916	None	604.848923	606.3639507	604.3676916	None	604.3676916	None	1.391160185	2	1	23	M	2021_Aug_01_2035	Social Reinforcement Learning	2021.1.4	60.05485302"
"																																																		"
