trials.thisRepN,trials.thisTrialN,trials.thisN,trials.thisIndex,textbox.started,textbox.stopped,key_resp_2.keys,key_resp_2.rt,key_resp_2.started,key_resp_2.stopped,block_type,learning_type,trial_type,image_path,x_image,trial,person.started,person.stopped,text.started,text.stopped,text_2.started,text_2.stopped,key_resp.keys,key_resp.rt,key_resp.started,key_resp.stopped,text_4.started,text_4.stopped,line.started,line.stopped,text_5.started,text_5.stopped,reward_a,reward_d,reward,image.started,image.stopped,text_3.started,text_3.stopped,line_2.started,line_2.stopped,text_6.started,text_6.stopped,session,exp_id,age,sex(M or F),date,expName,psychopyVersion,frameRate,
,,,,48.06857199524529,None,f,0.5287106933537871,48.06857199524529,None,,,,,,,,,,,,,,,,,,,,,,,,,,,,,,,,,,3,2,52,F,2021_Aug_02_0108,Social Reinforcement Learning,2021.1.4,60.07323886431752,
0,0,0,0,,,,,,,Private,PL,Private,images/Private_trial.png,0.5,1,49.184774965106044,None,50.18537822389044,51.462784029426984,50.94892013911158,51.462784029426984,d,8.043534187832847,51.43937268987065,None,59.50907361258869,None,48.693995303532574,None,49.184774965106044,None,0.7,0.30000000000000004,-1,59.58094650396379,None,60.05613585689571,None,59.58094650396379,None,59.58094650396379,None,3,2,52,F,2021_Aug_02_0108,Social Reinforcement Learning,2021.1.4,60.07323886431752,
1,0,1,0,,,,,,,Private,PL,Private,images/Private_trial.png,0.5,2,62.02224472316448,None,63.02350378391566,64.28772480972111,63.775919189385604,64.28772480972111,d,0.23459734546486288,64.27058783557732,None,None,None,61.538358488236554,None,62.02224472316448,None,0.7,0.30000000000000004,1,64.55953733570641,None,65.05362089589471,None,64.55953733570641,None,64.55953733570641,None,3,2,52,F,2021_Aug_02_0108,Social Reinforcement Learning,2021.1.4,60.07323886431752,
2,0,2,0,,,,,,,Private,PL,Private,images/Private_trial.png,0.5,3,67.0648505166755,None,68.05091591039672,69.3146446896717,68.81749071209924,69.3314533677767,d,0.6612435269635171,69.3146446896717,None,70.00360675274278,None,66.56729871226707,None,67.0648505166755,None,0.7,0.30000000000000004,1,70.02079405763652,None,70.49731200211681,71.99602844758192,70.02079405763652,None,70.02079405763652,None,3,2,52,F,2021_Aug_02_0108,Social Reinforcement Learning,2021.1.4,60.07323886431752,
3,0,3,0,,,,,,,Private,PL,Private,images/Private_trial.png,0.5,4,72.53624846518505,None,73.5304145932896,74.79023858549772,74.2761096089962,74.79023858549772,d,0.5996064398204908,74.77214082202408,None,75.39381523455377,None,72.03232273989124,None,72.53624846518505,None,0.7,0.30000000000000004,1,75.41989537194604,None,75.90161350986455,77.40655533311656,75.41989537194604,None,75.41989537194604,None,3,2,52,F,2021_Aug_02_0108,Social Reinforcement Learning,2021.1.4,60.07323886431752,
4,0,4,0,,,,,,,Private,PL,Private,images/Private_trial.png,0.5,5,77.90622032101965,None,78.9053634328302,80.15438012493541,79.6547005197499,80.15438012493541,d,0.5656659234082326,80.15438012493541,None,80.74139935495914,None,77.42342287534848,None,77.90622032101965,None,0.7,0.30000000000000004,1,80.75576236582128,None,81.23666549200425,82.75172523321817,80.75576236582128,None,80.75576236582128,None,3,2,52,F,2021_Aug_02_0108,Social Reinforcement Learning,2021.1.4,60.07323886431752,
5,0,5,0,,,,,,,Private,PL,Private,images/Private_trial.png,0.5,6,83.25264493620489,None,84.25380799698178,85.51469865505351,85.00289461499779,85.51469865505351,d,1.1991777191869915,85.51469865505351,None,86.73132370862295,None,82.76881954068085,None,83.25264493620489,None,0.7,0.30000000000000004,-1,86.74157413013745,None,87.23844998446293,None,86.74157413013745,None,86.74157413013745,None,3,2,52,F,2021_Aug_02_0108,Social Reinforcement Learning,2021.1.4,60.07323886431752,
6,0,6,0,,,,,,,Private,PL,Private,images/Private_trial.png,0.5,7,89.24619990424253,None,90.24605886731297,91.50155140622519,90.99413294292754,91.50155140622519,d,1.144334503216669,91.50155140622519,None,92.67625135703129,None,88.75217125756899,None,89.24619990424253,None,0.7,0.30000000000000004,1,92.70348665403435,None,93.20239154383307,None,92.70348665403435,None,92.70348665403435,None,3,2,52,F,2021_Aug_02_0108,Social Reinforcement Learning,2021.1.4,60.07323886431752,
7,0,7,0,,,,,,,Private,PL,Private,images/Private_trial.png,0.5,8,95.20917040266795,None,96.20821553922724,97.47125019558007,96.97201779991155,97.47125019558007,d,2.0093432025169022,97.47125019558007,None,99.5016926801356,None,94.7169594335137,None,95.20917040266795,None,0.7,0.30000000000000004,-1,99.54049735073932,None,100.016843838559,101.5259464486735,99.54049735073932,None,99.54049735073932,None,3,2,52,F,2021_Aug_02_0108,Social Reinforcement Learning,2021.1.4,60.07323886431752,
8,0,8,0,,,,,,,Private,PL,Private,images/Private_trial.png,0.5,9,102.03517468826612,None,103.03668895870214,104.28991898079403,103.80322504439391,104.30757546069799,d,0.7488156058825552,104.28991898079403,None,105.06406102593174,None,101.55561595608015,None,102.03517468826612,None,0.7,0.30000000000000004,-1,105.07399737363448,None,105.5644289861666,107.07759124733275,105.07399737363448,None,105.07399737363448,None,3,2,52,F,2021_Aug_02_0108,Social Reinforcement Learning,2021.1.4,60.07323886431752,
9,0,9,0,,,,,,,Private,PL,Private,images/Private_trial.png,0.5,10,107.59658224467421,None,108.59751854022034,109.8600593698211,109.34568585036322,109.8600593698211,d,0.5526727485121228,109.84337276575388,None,110.41276198499254,None,107.09781207086053,None,107.59658224467421,None,0.7,0.30000000000000004,-1,110.44168024364626,None,110.92725181055721,None,110.44168024364626,None,110.44168024364626,None,3,2,52,F,2021_Aug_02_0108,Social Reinforcement Learning,2021.1.4,60.07323886431752,
10,0,10,0,,,,,,,Private,PL,Private,images/Private_trial.png,0.5,11,112.92455156578217,None,113.92527136771241,115.18956468976103,114.67334860377014,115.17210218502441,d,1.3780757506610826,115.17210218502441,None,116.5705913911399,None,112.44105762685649,None,112.92455156578217,None,0.7,0.30000000000000004,-1,116.58893306553364,None,117.07296112756012,118.58504921675194,116.58893306553364,None,116.58893306553364,None,3,2,52,F,2021_Aug_02_0108,Social Reinforcement Learning,2021.1.4,60.07323886431752,
11,0,11,0,,,,,,,Private,PL,Private,images/Private_trial.png,0.5,12,119.10221305507002,None,120.10053048847476,121.36946894263383,120.85035626642639,121.36946894263383,a,0.2023978647775948,121.34958471148275,None,None,None,118.60409117705422,None,119.10221305507002,None,0.7,0.30000000000000004,1,121.60244614130352,None,122.083459884685,None,121.60244614130352,None,121.60244614130352,None,3,2,52,F,2021_Aug_02_0108,Social Reinforcement Learning,2021.1.4,60.07323886431752,
12,0,12,0,,,,,,,Private,PL,Private,images/Private_trial.png,0.5,13,124.0966608619201,None,125.09563330718083,126.3445859993808,125.84493404848035,126.3445859993808,a,0.8393462998210452,126.3445859993808,None,127.21120560101117,None,123.598822637985,None,124.0966608619201,None,0.7,0.30000000000000004,1,127.23603023326723,None,127.72719033900648,129.225648809399,127.23603023326723,None,127.23603023326723,None,3,2,52,F,2021_Aug_02_0108,Social Reinforcement Learning,2021.1.4,60.07323886431752,
13,0,13,0,,,,,,,Private,PL,Private,images/Private_trial.png,0.5,14,129.74318242515437,None,130.74239348748233,132.00911564711714,131.49374538764823,132.00911564711714,a,2.254603255656548,131.98962568724528,None,134.27126797331147,None,129.2454520529718,None,129.74318242515437,None,0.7,0.30000000000000004,1,134.30041497253114,None,134.78849754983094,None,134.30041497253114,None,134.30041497253114,None,3,2,52,F,2021_Aug_02_0108,Social Reinforcement Learning,2021.1.4,60.07323886431752,
14,0,14,0,,,,,,,Private,PL,Private,images/Private_trial.png,0.5,15,136.80252183508128,None,137.8031045506359,139.04982870136155,138.55163492215797,139.04982870136155,a,1.1023619932238944,139.04982870136155,None,140.1817869576218,None,136.3044821298099,None,136.80252183508128,None,0.7,0.30000000000000004,1,140.19758009084035,None,140.68328439840116,142.19605791918002,140.19758009084035,None,140.19758009084035,None,3,2,52,F,2021_Aug_02_0108,Social Reinforcement Learning,2021.1.4,60.07323886431752,
15,0,15,0,,,,,,,Private,PL,Private,images/Private_trial.png,0.5,16,142.71219459781423,None,143.72668624063954,144.99411714047892,144.4605266485014,144.9774814993143,a,0.5489864303963259,144.95853395870654,None,145.52672772210207,None,142.2133683252614,None,142.71219459781423,None,0.7,0.30000000000000004,-1,145.55338583438424,None,146.0426413490204,147.54437843407504,145.55338583438424,None,145.55338583438424,None,3,2,52,F,2021_Aug_02_0108,Social Reinforcement Learning,2021.1.4,60.07323886431752,
16,0,16,0,,,,,,,Private,PL,Private,images/Private_trial.png,0.5,17,148.05848923773738,None,149.0595381258172,150.32271776971174,149.80601417797152,150.30540973402094,d,1.0590881507960148,150.30540973402094,None,151.39708002210244,None,147.57096764765447,None,148.05848923773738,None,0.7,0.30000000000000004,-1,151.40865626971936,None,151.9041837794357,None,151.40865626971936,None,151.40865626971936,None,3,2,52,F,2021_Aug_02_0108,Social Reinforcement Learning,2021.1.4,60.07323886431752,
17,0,17,0,,,,,,,Private,PL,Private,images/Private_trial.png,0.5,18,153.91887927398784,None,154.91959038452478,156.1892059739912,155.68320894165663,156.1892059739912,d,0.48155932320514694,156.16680480650393,None,156.66807990674278,None,153.41701260878472,None,153.91887927398784,None,0.7,0.30000000000000004,-1,156.69426592061063,None,157.17834889615187,158.68505822418956,156.69426592061063,None,156.69426592061063,None,3,2,52,F,2021_Aug_02_0108,Social Reinforcement Learning,2021.1.4,60.07323886431752,
18,0,18,0,,,,,,,Private,PL,Private,images/Private_trial.png,0.5,19,159.1977053252631,None,160.19635026465403,161.44511648779735,160.94558305537794,161.44511648779735,a,2.631122464314103,161.44511648779735,None,164.0957354700251,None,158.71592239732854,None,159.1977053252631,None,0.7,0.30000000000000004,1,164.1320966857602,None,164.61442124296445,None,164.1320966857602,None,164.1320966857602,None,3,2,52,F,2021_Aug_02_0108,Social Reinforcement Learning,2021.1.4,60.07323886431752,
19,0,19,0,,,,,,,Private,PL,Private,images/Private_trial.png,0.5,20,166.6293834039825,None,167.62383437133394,168.88840976718348,168.38264029024867,168.88840976718348,a,2.0225220563006587,168.87150706449756,None,170.92263970560742,None,166.13417273352388,None,166.6293834039825,None,0.7,0.30000000000000004,1,170.9495806818013,None,171.44885100336978,None,170.9495806818013,None,170.9495806818013,None,3,2,52,F,2021_Aug_02_0108,Social Reinforcement Learning,2021.1.4,60.07323886431752,
20,0,20,0,,,,,,,Social,SD,Observational,images/Observational_trial.png,-0.5,21,173.50423940405017,None,174.5034524417133,175.7654658643296,175.25533174886368,175.7654658643296,None,,177.51559489140635,None,176.26526240771636,177.28039128467208,173.01396384084364,None,173.50423940405017,None,0.7,0.30000000000000004,?,177.5705441418104,None,178.03957922797417,None,177.5705441418104,None,177.5705441418104,None,3,2,52,F,2021_Aug_02_0108,Social Reinforcement Learning,2021.1.4,60.07323886431752,
21,0,21,0,,,,,,,Social,SD,Observational,images/Observational_trial.png,-0.5,22,180.03271701122867,None,181.0435472248937,182.3089178793598,181.7758781030425,182.275454202143,None,,184.04126203160848,None,182.78574120631674,183.80782671977067,179.54496352002025,None,180.03271701122867,None,0.7,0.30000000000000004,?,184.06336666597053,None,184.5430648548645,186.05542316607898,184.06336666597053,None,184.06336666597053,None,3,2,52,F,2021_Aug_02_0108,Social Reinforcement Learning,2021.1.4,60.07323886431752,
22,0,22,0,,,,,,,Social,SD,Observational,images/Observational_trial.png,-0.5,23,186.57321475696517,None,187.58757168392185,188.842983630253,188.3277425558772,188.842983630253,None,,190.59434208846068,None,189.34464960423065,190.3500714271213,186.07962107291678,None,186.57321475696517,None,0.7,0.30000000000000004,?,190.63239456206793,None,191.12384227255825,None,190.63239456206793,None,190.63239456206793,None,3,2,52,F,2021_Aug_02_0108,Social Reinforcement Learning,2021.1.4,60.07323886431752,
23,0,23,0,,,,,,,Social,SD,Observational,images/Observational_trial.png,-0.5,24,193.1343615728547,None,194.13330478355056,195.3968735630042,194.8834138205275,195.3968735630042,None,,197.14505335701978,None,195.87942291010404,196.89529331732774,192.64998546172865,None,193.1343615728547,None,0.7,0.30000000000000004,?,197.16451819101349,None,197.6443420094438,None,197.16451819101349,None,197.16451819101349,None,3,2,52,F,2021_Aug_02_0108,Social Reinforcement Learning,2021.1.4,60.07323886431752,
24,0,24,0,,,,,,,Social,SD,Observational,images/Observational_trial.png,-0.5,25,199.64625726715894,None,200.65220531186787,201.90714753017528,201.40766585076926,201.90714753017528,None,,203.67219210097682,None,202.400299930654,203.40596906194696,199.1604948855238,None,199.64625726715894,None,0.7,0.30000000000000004,?,203.68062128941528,None,204.17131324735237,205.6704417418805,203.68062128941528,None,203.68062128941528,None,3,2,52,F,2021_Aug_02_0108,Social Reinforcement Learning,2021.1.4,60.07323886431752,
25,0,25,0,,,,,,,Social,SD,Private,images/Private_trial.png,0.5,26,206.18994710920379,None,207.18810572795337,208.45566344243707,207.9344344221754,208.45566344243707,d,1.9397329859202728,208.43732429645024,None,210.39948199551435,None,205.69193979899865,None,206.18994710920379,None,0.7,0.30000000000000004,1,210.4319016834488,None,210.91801566974027,None,210.4319016834488,None,210.4319016834488,None,3,2,52,F,2021_Aug_02_0108,Social Reinforcement Learning,2021.1.4,60.07323886431752,
26,0,26,0,,,,,,,Social,SD,Observational,images/Observational_trial.png,-0.5,27,212.95059954520548,None,213.9654949408723,215.22814125183504,214.70895588427084,215.21171854878776,None,,216.96047473741345,None,215.69813041138696,216.7119654621929,212.4541629991727,None,212.95059954520548,None,0.7,0.30000000000000004,?,217.11938321433263,None,217.61359437939245,None,217.11938321433263,None,217.11938321433263,None,3,2,52,F,2021_Aug_02_0108,Social Reinforcement Learning,2021.1.4,60.07323886431752,
27,0,27,0,,,,,,,Social,SD,Private,images/Private_trial.png,0.5,28,219.48775665165158,None,220.49036998295924,221.73913660121616,221.241286130331,221.73913660121616,d,0.8423511369037442,221.73913660121616,None,222.6052844995458,None,218.99908345751464,None,219.48775665165158,None,0.7,0.30000000000000004,-1,222.65208047244232,None,223.1374165827874,None,222.65208047244232,None,222.65208047244232,None,3,2,52,F,2021_Aug_02_0108,Social Reinforcement Learning,2021.1.4,60.07323886431752,
28,0,28,0,,,,,,,Social,SD,Private,images/Private_trial.png,0.5,29,225.1191445972072,None,226.12429185240762,227.3825170311029,226.87301461887546,227.3825170311029,a,1.8195233031292446,227.3825170311029,None,229.231989387091,None,224.63635426264955,None,225.1191445972072,None,0.7,0.30000000000000004,-1,229.24789511278505,None,229.73348643281497,None,229.24789511278505,None,229.24789511278505,None,3,2,52,F,2021_Aug_02_0108,Social Reinforcement Learning,2021.1.4,60.07323886431752,
29,0,29,0,,,,,,,Social,SD,Private,images/Private_trial.png,0.5,30,231.75268088676967,None,232.74530232470715,233.99508899153443,233.50788463576464,234.01353006338468,a,0.6425618626526557,233.99508899153443,None,234.65962638253694,None,231.26132206514012,None,231.75268088676967,None,0.7,0.30000000000000004,-1,234.66833803983172,None,235.1592990346253,None,234.66833803983172,None,234.66833803983172,None,3,2,52,F,2021_Aug_02_0108,Social Reinforcement Learning,2021.1.4,60.07323886431752,
30,0,30,0,,,,,,,Social,SD,Private,images/Private_trial.png,0.5,31,237.15764017176116,None,238.15856185002485,239.42088421067456,238.9228599127964,239.43944182567066,d,1.3283070985926315,239.42088421067456,None,240.7737722676422,None,236.67625072493684,None,237.15764017176116,None,0.7,0.30000000000000004,1,240.80703857220942,None,241.31101289007347,None,240.80703857220942,None,240.80703857220942,None,3,2,52,F,2021_Aug_02_0108,Social Reinforcement Learning,2021.1.4,60.07323886431752,
31,0,31,0,,,,,,,Social,SD,Private,images/Private_trial.png,0.5,32,243.28564402123448,None,244.2845666887588,245.54976825701306,245.03408984962152,245.54976825701306,d,1.6678789784782566,245.5329809122486,None,247.2169027817028,None,242.8019944280968,None,243.28564402123448,None,0.7,0.30000000000000004,1,247.24627457087627,None,247.73355675372295,None,247.24627457087627,None,247.24627457087627,None,3,2,52,F,2021_Aug_02_0108,Social Reinforcement Learning,2021.1.4,60.07323886431752,
32,0,32,0,,,,,,,Social,SD,Private,images/Private_trial.png,0.5,33,249.74588108970784,None,250.74491634970764,251.99387891840888,251.49440869578393,251.99387891840888,d,1.2269774008891545,251.99387891840888,None,253.24260429230634,None,249.2493884449359,None,249.74588108970784,None,0.7,0.30000000000000004,-1,253.26177006476792,None,253.74286598095205,None,253.26177006476792,None,253.26177006476792,None,3,2,52,F,2021_Aug_02_0108,Social Reinforcement Learning,2021.1.4,60.07323886431752,
33,0,33,0,,,,,,,Social,SD,Observational,images/Observational_trial.png,-0.5,34,255.77684402820887,None,256.77491612848826,258.0381724142935,257.5167225546902,258.0216331681004,None,,259.79213511736015,None,258.52242921688594,259.52479523967486,255.27030971238855,None,255.77684402820887,None,0.7,0.30000000000000004,?,259.8578900875873,None,260.34619271411793,None,259.8578900875873,None,259.8578900875873,None,3,2,52,F,2021_Aug_02_0108,Social Reinforcement Learning,2021.1.4,60.07323886431752,
34,0,34,0,,,,,,,Social,SD,Observational,images/Observational_trial.png,-0.5,35,262.31784429209074,None,263.3339248719858,264.5982343915384,264.0658476516837,264.5815228985739,None,,266.3301052602066,None,265.06456212187186,266.06365664105397,261.8235477937269,None,262.31784429209074,None,0.7,0.30000000000000004,?,266.33549800654873,None,266.8363691169652,None,266.33549800654873,None,266.33549800654873,None,3,2,52,F,2021_Aug_02_0108,Social Reinforcement Learning,2021.1.4,60.07323886431752,
35,0,35,0,,,,,,,Social,SD,Private,images/Private_trial.png,0.5,36,268.9254116145312,None,269.8834825612139,271.14345944224624,270.63574310264084,271.14345944224624,d,0.5950328138424084,271.14345944224624,None,271.7590115879604,None,268.3799530825345,None,268.9254116145312,None,0.7,0.30000000000000004,1,271.8038966488093,None,272.2746719805291,None,271.8038966488093,None,271.8038966488093,None,3,2,52,F,2021_Aug_02_0108,Social Reinforcement Learning,2021.1.4,60.07323886431752,
36,0,36,0,,,,,,,Social,SD,Observational,images/Observational_trial.png,-0.5,37,274.30432371015195,None,275.29213053465355,276.53805547609227,276.05771610257216,276.5705883887131,None,,278.3235788456106,None,277.0385686609079,278.05540933896555,273.7955896923668,None,274.30432371015195,None,0.7,0.30000000000000004,?,278.3459521217155,None,278.81870473583695,None,278.3459521217155,None,278.3459521217155,None,3,2,52,F,2021_Aug_02_0108,Social Reinforcement Learning,2021.1.4,60.07323886431752,
37,0,37,0,,,,,,,Social,SD,Private,images/Private_trial.png,0.5,38,280.8340129706776,None,281.83422116801376,283.09838886052603,282.5867752400809,283.09838886052603,d,0.6136848484748043,283.0814174171537,None,283.71416777152916,None,280.338884868077,None,280.8340129706776,None,0.7,0.30000000000000004,1,283.7488997539622,None,284.2317276193644,None,283.7488997539622,None,283.7488997539622,None,3,2,52,F,2021_Aug_02_0108,Social Reinforcement Learning,2021.1.4,60.07323886431752,
38,0,38,0,,,,,,,Social,SD,Observational,images/Observational_trial.png,-0.5,39,286.2508801968652,None,287.2498210371705,288.50990576995537,288.01304058230016,288.5269088182831,None,,290.2587966745661,None,289.0030218248139,290.0253107948229,285.75379377481295,None,286.2508801968652,None,0.7,0.30000000000000004,?,290.30868992896285,None,290.8050340305781,None,290.30868992896285,None,290.30868992896285,None,3,2,52,F,2021_Aug_02_0108,Social Reinforcement Learning,2021.1.4,60.07323886431752,
39,0,39,0,,,,,,,Social,SD,Observational,images/Observational_trial.png,-0.5,40,292.79722722194856,None,293.788149105676,295.0532254394493,294.536941402941,295.0369263906032,None,,296.8022802944935,None,295.54350969404913,296.5523709215922,292.29932065238245,None,292.79722722194856,None,0.7,0.30000000000000004,?,296.8202758951229,None,297.31915352563374,None,296.8202758951229,None,296.8202758951229,None,3,2,52,F,2021_Aug_02_0108,Social Reinforcement Learning,2021.1.4,60.07323886431752,
40,0,40,0,,,,,,,Social,SD,Private,images/Private_trial.png,0.5,41,299.3363896601368,None,300.33215539186494,301.59937769925455,301.08198195992736,301.59937769925455,d,0.07325505325570703,301.5806458622101,None,None,None,298.8441368145286,None,299.3363896601368,None,0.7,0.30000000000000004,-1,301.73266075446736,None,302.22672772209626,None,301.73266075446736,None,301.73266075446736,None,3,2,52,F,2021_Aug_02_0108,Social Reinforcement Learning,2021.1.4,60.07323886431752,
41,0,41,0,,,,,,,Social,SD,Private,images/Private_trial.png,0.5,42,304.19686344941147,None,305.19573673425475,306.4583984526107,305.95232477842364,306.479022238811,d,1.4820764585747384,306.4583984526107,None,307.95974426887113,None,303.71207884477917,None,304.19686344941147,None,0.7,0.30000000000000004,-1,307.9840083089657,None,308.4584960328066,309.97264673770405,307.9840083089657,None,307.9840083089657,None,3,2,52,F,2021_Aug_02_0108,Social Reinforcement Learning,2021.1.4,60.07323886431752,
42,0,42,0,,,,,,,Social,SD,Private,images/Private_trial.png,0.5,43,310.47318244096823,None,311.4721406640019,312.7373825284885,312.222512021719,312.7373825284885,a,0.4660630391445011,312.7206350849592,None,None,None,309.9896403044695,None,310.47318244096823,None,0.7,0.30000000000000004,1,313.24530469509773,None,313.73661373899085,None,313.24530469509773,None,313.24530469509773,None,3,2,52,F,2021_Aug_02_0108,Social Reinforcement Learning,2021.1.4,60.07323886431752,
43,0,43,0,,,,,,,Social,SD,Observational,images/Observational_trial.png,-0.5,44,315.7684347509057,None,316.74990123463795,318.0001023209188,317.5046526383376,318.0157688764739,None,,319.7639206210908,None,318.500515555148,319.49933985236567,315.26425579120405,None,315.7684347509057,None,0.7,0.30000000000000004,?,319.7977226289804,None,320.2822338510887,None,319.7977226289804,None,319.7977226289804,None,3,2,52,F,2021_Aug_02_0108,Social Reinforcement Learning,2021.1.4,60.07323886431752,
44,0,44,0,,,,,,,Social,SD,Observational,images/Observational_trial.png,-0.5,45,322.2805872351164,None,323.2788390883361,324.5422921147547,324.0264774112147,324.5422921147547,None,,326.2914338833245,None,325.02528511581477,326.0242160796188,321.78361419565044,None,322.2805872351164,None,0.7,0.30000000000000004,?,326.33618422818836,None,326.8100564464112,None,326.33618422818836,None,326.33618422818836,None,3,2,52,F,2021_Aug_02_0108,Social Reinforcement Learning,2021.1.4,60.07323886431752,
45,0,45,0,,,,,,,Social,SD,Observational,images/Observational_trial.png,-0.5,46,328.8257877919823,None,329.8204908085172,331.08554857439594,330.57004636444617,331.08554857439594,None,,332.85014870112644,None,331.5743304103962,332.5838221560116,328.33668319077697,None,328.8257877919823,None,0.7,0.30000000000000004,?,332.8756804933073,None,333.36284494790016,334.8663704759674,332.8756804933073,None,332.8756804933073,None,3,2,52,F,2021_Aug_02_0108,Social Reinforcement Learning,2021.1.4,60.07323886431752,
46,0,46,0,,,,,,,Social,SD,Private,images/Private_trial.png,0.5,47,335.3905114939553,None,336.3836295240326,337.6376330764615,337.148336475424,337.6575864434126,a,0.4047167172539048,337.6376330764615,None,None,None,334.8896751489374,None,335.3905114939553,None,0.7,0.30000000000000004,1,338.1016876233625,None,338.5797293197247,None,338.1016876233625,None,338.1016876233625,None,3,2,52,F,2021_Aug_02_0108,Social Reinforcement Learning,2021.1.4,60.07323886431752,
47,0,47,0,,,,,,,Social,SD,Private,images/Private_trial.png,0.5,48,340.61748573434306,None,341.61005581426434,342.8590353706386,342.35989778972,342.8590353706386,a,0.5682156498078257,342.8590353706386,None,343.4584140971012,None,340.1098898884957,None,340.61748573434306,None,0.7,0.30000000000000004,1,343.4811417433084,None,343.9587883782806,345.4728604659322,343.4811417433084,None,343.4811417433084,None,3,2,52,F,2021_Aug_02_0108,Social Reinforcement Learning,2021.1.4,60.07323886431752,
48,0,48,0,,,,,,,Social,SD,Observational,images/Observational_trial.png,-0.5,49,345.993094721518,None,346.9914168957039,348.25416276213946,347.74072040239116,348.25416276213946,None,,350.0021857168351,None,348.75135466561187,349.76753638120135,345.50068503653165,None,345.993094721518,None,0.7,0.30000000000000004,?,350.0217955383705,None,350.52817024936667,None,350.0217955383705,None,350.0217955383705,None,3,2,52,F,2021_Aug_02_0108,Social Reinforcement Learning,2021.1.4,60.07323886431752,
49,0,49,0,,,,,,,Social,SD,Private,images/Private_trial.png,0.5,50,352.51842250395566,None,353.5190628985292,354.7813540493371,354.26481519819936,354.7643652232364,a,0.4787425352842547,354.7643652232364,None,355.2695154809218,None,352.0241034871433,None,352.51842250395566,None,0.7,0.30000000000000004,-1,355.31260617275257,None,355.79867512203055,None,355.31260617275257,None,355.31260617275257,None,3,2,52,F,2021_Aug_02_0108,Social Reinforcement Learning,2021.1.4,60.07323886431752,
50,0,50,0,,,,,,,Social,SD,Private,images/Private_trial.png,0.5,51,357.7948461868218,None,358.79739907366456,360.0427875217865,359.53895187046146,360.0427875217865,a,0.4082540971576236,360.0427875217865,None,None,None,357.2973180860863,None,357.7948461868218,None,0.7,0.30000000000000004,1,360.50528315635165,None,361.0117218673113,None,360.50528315635165,None,360.50528315635165,None,3,2,52,F,2021_Aug_02_0108,Social Reinforcement Learning,2021.1.4,60.07323886431752,
51,0,51,0,,,,,,,Social,SD,Observational,images/Observational_trial.png,-0.5,52,363.01028660917655,None,364.0060092792264,365.27393400581786,364.7609084358555,365.27393400581786,None,,367.02927112749893,None,365.76896571344696,366.7899802153115,362.51939593529096,None,363.01028660917655,None,0.7,0.30000000000000004,?,367.08202462655026,None,367.5766134703299,None,367.08202462655026,None,367.08202462655026,None,3,2,52,F,2021_Aug_02_0108,Social Reinforcement Learning,2021.1.4,60.07323886431752,
52,0,52,0,,,,,,,Social,SD,Observational,images/Observational_trial.png,-0.5,53,369.55440153728705,None,370.56441713433014,371.83282541605877,371.3200115990476,371.83282541605877,None,,373.5853054535866,None,372.31945219205227,373.33041396114277,369.07165781996446,None,369.55440153728705,None,0.7,0.30000000000000004,?,373.60053838969907,None,374.0818673921167,375.59468397457385,373.60053838969907,None,373.60053838969907,None,3,2,52,F,2021_Aug_02_0108,Social Reinforcement Learning,2021.1.4,60.07323886431752,
53,0,53,0,,,,,,,Social,SD,Observational,images/Observational_trial.png,-0.5,54,376.095773158886,None,377.0938365678303,378.35928188898833,377.8441265429137,378.35928188898833,None,,380.11103185302926,None,378.85620475560427,379.8747003459139,375.6234871123452,None,376.095773158886,None,0.7,0.30000000000000004,?,380.14810812991345,None,380.6409227528493,None,380.14810812991345,None,380.14810812991345,None,3,2,52,F,2021_Aug_02_0108,Social Reinforcement Learning,2021.1.4,60.07323886431752,
54,0,54,0,,,,,,,Social,SD,Observational,images/Observational_trial.png,-0.5,55,382.65831375145353,None,383.6543192854733,384.919570631464,384.4028551878873,384.9029247186845,None,,386.66874479510005,None,385.40680382674327,386.41621814027894,382.15875898569357,None,382.65831375145353,None,0.7,0.30000000000000004,?,386.6939822664717,None,387.17217645654455,388.6838169412222,386.6939822664717,None,386.6939822664717,None,3,2,52,F,2021_Aug_02_0108,Social Reinforcement Learning,2021.1.4,60.07323886431752,
55,0,55,0,,,,,,,Social,SD,Private,images/Private_trial.png,0.5,56,389.23555457935436,None,390.23129344690824,391.4829175443738,390.98379142023623,391.50009876536205,a,0.533014492422808,391.4829175443738,None,392.0314787306881,None,388.7337507288903,None,389.23555457935436,None,0.7,0.30000000000000004,-1,392.0741332747857,None,392.57521455787355,None,392.0741332747857,None,392.0741332747857,None,3,2,52,F,2021_Aug_02_0108,Social Reinforcement Learning,2021.1.4,60.07323886431752,
56,0,56,0,,,,,,,Social,SD,Private,images/Private_trial.png,0.5,57,394.56478572660126,None,395.5622336298693,396.83430018031504,396.30818187998375,396.81629367603455,d,1.0698002411518246,396.81629367603455,None,397.9061846074939,None,394.069698710402,None,394.56478572660126,None,0.7,0.30000000000000004,-1,397.93263175693573,None,398.4069567155093,399.9057071362622,397.93263175693573,None,397.93263175693573,None,3,2,52,F,2021_Aug_02_0108,Social Reinforcement Learning,2021.1.4,60.07323886431752,
57,0,57,0,,,,,,,Social,SD,Private,images/Private_trial.png,0.5,58,400.43936557881534,None,401.4375850369688,402.7074696632335,402.1906096271705,402.7074696632335,a,0.6276079979725182,402.6891870110412,None,403.33557132994173,None,399.94219935435103,None,400.43936557881534,None,0.7,0.30000000000000004,1,403.34368367906427,None,403.8352755869855,405.33385297079803,403.34368367906427,None,403.34368367906427,None,3,2,52,F,2021_Aug_02_0108,Social Reinforcement Learning,2021.1.4,60.07323886431752,
58,0,58,0,,,,,,,Social,SD,Private,images/Private_trial.png,0.5,59,405.83269030507654,None,406.83246591017814,408.0977006635512,407.58111361495685,408.08089909661794,a,0.3621899360441603,408.08089909661794,None,None,None,405.35045661201,None,405.83269030507654,None,0.7,0.30000000000000004,1,408.4690177034936,None,408.9637839298812,None,408.4690177034936,None,408.4690177034936,None,3,2,52,F,2021_Aug_02_0108,Social Reinforcement Learning,2021.1.4,60.07323886431752,
59,0,59,0,,,,,,,Social,SD,Observational,images/Observational_trial.png,-0.5,60,410.98119349638,None,411.97892307839356,413.2264646111871,412.7271611044998,413.2264646111871,None,,414.98103017798275,None,413.7280922642676,414.74166025349405,410.4858433692134,None,410.98119349638,None,0.7,0.30000000000000004,?,415.03399938053917,None,415.53249419655185,None,415.03399938053917,None,415.03399938053917,None,3,2,52,F,2021_Aug_02_0108,Social Reinforcement Learning,2021.1.4,60.07323886431752,
60,0,60,0,,,,,,,Social,UD,Observational,images/Observational_trial.png,-0.5,61,417.5092819679994,None,418.50481895916164,419.75403594743693,419.25565332890255,419.75403594743693,None,,421.5181904449302,None,420.25433619413525,421.2685749976663,417.0166632955079,None,417.5092819679994,None,0.7,0.30000000000000004,?,421.5298911369173,423.5338867880637,422.04582514899084,None,421.5298911369173,423.5338867880637,421.5298911369173,423.5338867880637,3,2,52,F,2021_Aug_02_0108,Social Reinforcement Learning,2021.1.4,60.07323886431752,
61,0,61,0,,,,,,,Social,UD,Private,images/Private_trial.png,0.5,62,424.08702807937516,None,425.08148378750775,426.3472455528099,425.8319527253625,426.3472455528099,a,0.6839382250327617,426.32796141988365,None,427.03015685519784,None,423.58837326354114,None,424.08702807937516,None,0.7,0.30000000000000004,1,427.06411451724125,None,427.5609172852128,None,427.06411451724125,None,427.06411451724125,None,3,2,52,F,2021_Aug_02_0108,Social Reinforcement Learning,2021.1.4,60.07323886431752,
62,0,62,0,,,,,,,Social,UD,Private,images/Private_trial.png,0.5,63,429.5481970977271,None,430.54393794061616,431.8098747181357,431.30563254863955,431.8098747181357,a,0.8232878433191217,431.7929771512281,None,432.6403580520593,None,429.064946911647,None,429.5481970977271,None,0.7,0.30000000000000004,-1,432.6795933396206,None,433.1754432194284,None,432.6795933396206,None,432.6795933396206,None,3,2,52,F,2021_Aug_02_0108,Social Reinforcement Learning,2021.1.4,60.07323886431752,
63,0,63,0,,,,,,,Social,UD,Observational,images/Observational_trial.png,-0.5,64,435.1927184650558,None,436.1885916534811,437.43778019730235,436.93835856724763,437.43778019730235,None,,439.20518644528346,None,437.9562212691526,438.9737422429607,434.71186472149566,None,435.1927184650558,None,0.7,0.30000000000000004,?,439.2558386126766,None,439.7462014845223,None,439.2558386126766,None,439.2558386126766,None,3,2,52,F,2021_Aug_02_0108,Social Reinforcement Learning,2021.1.4,60.07323886431752,
64,0,64,0,,,,,,,Social,UD,Private,images/Private_trial.png,0.5,65,441.7364039613749,None,442.7323494460434,443.99796266830526,443.48231626092456,443.99796266830526,a,0.5206269466434605,443.9818236193387,None,444.5303836204286,None,441.24252859852277,None,441.7364039613749,None,0.7,0.30000000000000004,1,444.56198118563043,None,445.04089043685235,446.5449504830176,444.56198118563043,None,444.56198118563043,None,3,2,52,F,2021_Aug_02_0108,Social Reinforcement Learning,2021.1.4,60.07323886431752,
65,0,65,0,,,,,,,Social,UD,Observational,images/Observational_trial.png,-0.5,66,447.0660578243551,None,448.06087540870067,449.3256076439866,448.82945317181293,449.342227877758,None,,451.0745356843283,None,449.8127337776241,450.8242691758787,446.5689567850204,None,447.0660578243551,None,0.7,0.30000000000000004,?,451.1148060327396,None,451.5983556754072,None,451.1148060327396,None,451.1148060327396,None,3,2,52,F,2021_Aug_02_0108,Social Reinforcement Learning,2021.1.4,60.07323886431752,
66,0,66,0,,,,,,,Social,UD,Private,images/Private_trial.png,0.5,67,453.60598984220996,None,454.6196020783391,455.8703420283855,455.3584925562609,455.8703420283855,a,1.2203684184933081,455.85409512766637,None,457.1022551686212,None,453.11989639909007,None,453.60598984220996,None,0.7,0.30000000000000004,1,457.1330234998604,None,457.6214177806396,None,457.1330234998604,None,457.1330234998604,None,3,2,52,F,2021_Aug_02_0108,Social Reinforcement Learning,2021.1.4,60.07323886431752,
67,0,67,0,,,,,,,Social,UD,Observational,images/Observational_trial.png,-0.5,68,459.6375141629833,None,460.635817374161,461.9029871383682,461.3901650250773,461.9029871383682,None,,463.6519748330058,None,462.38515801669564,463.39677084703,459.1452115395805,None,459.6375141629833,None,0.7,0.30000000000000004,?,463.7034748021979,None,464.18151768372627,None,463.7034748021979,None,463.7034748021979,None,3,2,52,F,2021_Aug_02_0108,Social Reinforcement Learning,2021.1.4,60.07323886431752,
68,0,68,0,,,,,,,Social,UD,Private,images/Private_trial.png,0.5,69,466.17929664847907,None,467.17734306975035,468.44426552555524,467.94085338007426,468.44426552555524,a,0.7732944013550878,468.4266256382107,None,469.22388944287667,None,465.6821343746269,None,466.17929664847907,None,0.7,0.30000000000000004,-1,469.264705766167,None,469.75939772097627,None,469.264705766167,None,469.264705766167,None,3,2,52,F,2021_Aug_02_0108,Social Reinforcement Learning,2021.1.4,60.07323886431752,
69,0,69,0,,,,,,,Social,UD,Private,images/Private_trial.png,0.5,70,471.75481816905085,None,472.75375940446975,474.0029977260274,473.5029779729666,474.0029977260274,a,1.1848962489748374,473.9872185779968,None,475.2013586952409,None,471.25678201933624,None,471.75481816905085,None,0.7,0.30000000000000004,-1,475.2043715916225,None,475.7012450755574,None,475.2043715916225,None,475.2043715916225,None,3,2,52,F,2021_Aug_02_0108,Social Reinforcement Learning,2021.1.4,60.07323886431752,
70,0,70,0,,,,,,,Social,UD,Private,images/Private_trial.png,0.5,71,477.71817938319873,None,478.73384870414156,480.0048225147184,479.4817197181401,480.0048225147184,d,0.6055386820225976,479.9771891538403,None,480.59944351647863,None,477.2258186857798,None,477.71817938319873,None,0.7,0.30000000000000004,-1,480.6233527914155,None,481.099319230183,482.606794187217,480.6233527914155,None,480.6233527914155,None,3,2,52,F,2021_Aug_02_0108,Social Reinforcement Learning,2021.1.4,60.07323886431752,
71,0,71,0,,,,,,,Social,UD,Observational,images/Observational_trial.png,-0.5,72,483.1474432415562,None,484.14315801038174,485.4076125174761,484.89994081982877,485.4258943795576,None,,487.1597567527962,None,485.9033565208083,486.922894678195,482.6647832771996,None,483.1474432415562,None,0.7,0.30000000000000004,?,487.2205497516552,None,487.7102331178612,None,487.2205497516552,None,487.2205497516552,None,3,2,52,F,2021_Aug_02_0108,Social Reinforcement Learning,2021.1.4,60.07323886431752,
72,0,72,0,,,,,,,Social,UD,Private,images/Private_trial.png,0.5,73,489.6970514986315,None,490.7206773565267,492.0013364927727,491.45322749373736,491.9724954291596,d,0.11633531551342458,491.9517365319771,None,None,None,489.20405633258633,None,489.6970514986315,None,0.7,0.30000000000000004,1,492.1343418197939,None,492.61387921869755,None,492.1343418197939,None,492.1343418197939,None,3,2,52,F,2021_Aug_02_0108,Social Reinforcement Learning,2021.1.4,60.07323886431752,
73,0,73,0,,,,,,,Social,UD,Observational,images/Observational_trial.png,-0.5,74,494.6558217040729,None,495.6557695559459,496.91494999313727,496.39884847501526,496.8982262532809,None,,498.661827269668,None,497.4008237820817,498.4181006079307,494.15662407380296,None,494.6558217040729,None,0.7,0.30000000000000004,?,498.71291439968627,None,499.19864833686734,None,498.71291439968627,None,498.71291439968627,None,3,2,52,F,2021_Aug_02_0108,Social Reinforcement Learning,2021.1.4,60.07323886431752,
74,0,74,0,,,,,,,Social,UD,Private,images/Private_trial.png,0.5,75,501.19707954803016,None,502.1955237961374,503.4597622046713,502.9423293295549,503.44187935459195,d,1.6214098793570884,503.44187935459195,None,505.0914905351412,None,500.70520872675115,None,501.19707954803016,None,0.7,0.30000000000000004,1,505.13613184308633,None,505.61399852723116,None,505.13613184308633,None,505.13613184308633,None,3,2,52,F,2021_Aug_02_0108,Social Reinforcement Learning,2021.1.4,60.07323886431752,
75,0,75,0,,,,,,,Social,UD,Observational,images/Observational_trial.png,-0.5,76,507.6415753943147,None,508.64587603288237,509.90134723845404,509.39200166560477,509.90134723845404,None,,511.6507525129884,None,510.3854456213885,511.4011252139462,507.136987941165,None,507.6415753943147,None,0.7,0.30000000000000004,?,511.6678505340824,None,512.1504148935201,None,511.6678505340824,None,511.6678505340824,None,3,2,52,F,2021_Aug_02_0108,Social Reinforcement Learning,2021.1.4,60.07323886431752,
76,0,76,0,,,,,,,Social,UD,Observational,images/Observational_trial.png,-0.5,77,514.1489891168894,None,515.1481693644309,516.4050789885805,515.9138130063657,516.421823666722,None,,518.1649877610209,None,516.9048775072442,517.9119965140126,513.6662303871708,None,514.1489891168894,None,0.7,0.30000000000000004,?,518.1889527395833,None,518.6837426696438,None,518.1889527395833,None,518.1889527395833,None,3,2,52,F,2021_Aug_02_0108,Social Reinforcement Learning,2021.1.4,60.07323886431752,
77,0,77,0,,,,,,,Social,UD,Observational,images/Observational_trial.png,-0.5,78,520.6946392536047,None,521.6940269084298,522.9584972179728,522.4412417254644,522.9584972179728,None,,524.7054562722508,None,523.4451548088109,524.4735063913395,520.205546504294,None,520.6946392536047,None,0.7,0.30000000000000004,?,524.7228332066443,None,525.2068427007762,None,524.7228332066443,None,524.7228332066443,None,3,2,52,F,2021_Aug_02_0108,Social Reinforcement Learning,2021.1.4,60.07323886431752,
78,0,78,0,,,,,,,Social,UD,Observational,images/Observational_trial.png,-0.5,79,527.2217724667862,None,528.2190623454517,529.4844061358017,528.968470148393,529.4679123216774,None,,531.2479696214025,None,529.9685926174279,530.9818331007846,526.7326157174539,None,527.2217724667862,None,0.7,0.30000000000000004,?,531.2718405753258,None,531.760061029112,533.2639215692761,531.2718405753258,None,531.2718405753258,None,3,2,52,F,2021_Aug_02_0108,Social Reinforcement Learning,2021.1.4,60.07323886431752,
79,0,79,0,,,,,,,Social,UD,Observational,images/Observational_trial.png,-0.5,80,533.7821702461806,None,534.7797678777133,536.0450053965324,535.5348179478315,536.0450053965324,None,,537.7932302275615,None,536.5357123668655,537.54302060802,533.2929633241147,None,533.7821702461806,None,0.7,0.30000000000000004,?,537.8058561534272,None,538.2937384346151,None,537.8058561534272,None,537.8058561534272,None,3,2,52,F,2021_Aug_02_0108,Social Reinforcement Learning,2021.1.4,60.07323886431752,
80,0,80,0,,,,,,,Social,UD,Private,images/Private_trial.png,0.5,81,540.3244904102758,None,541.3234912999906,542.5795468013384,542.0764680877328,542.5795468013384,d,0.9391929369303398,542.5620135806384,None,543.5204486159666,None,539.8256779648946,None,540.3244904102758,None,0.7,0.30000000000000004,-1,543.5742727314355,None,544.0634464683826,None,543.5742727314355,None,543.5742727314355,None,3,2,52,F,2021_Aug_02_0108,Social Reinforcement Learning,2021.1.4,60.07323886431752,
81,0,81,0,,,,,,,Social,UD,Observational,images/Observational_trial.png,-0.5,82,546.0724546588026,None,547.0611065196572,548.3322138609947,547.8179015759961,548.3322138609947,None,,550.0816862959939,None,548.8184914026642,549.8319254661328,545.5809350471827,None,546.0724546588026,None,0.7,0.30000000000000004,?,550.1060257927747,None,550.5810231458745,None,550.1060257927747,None,550.1060257927747,None,3,2,52,F,2021_Aug_02_0108,Social Reinforcement Learning,2021.1.4,60.07323886431752,
82,0,82,0,,,,,,,Social,UD,Private,images/Private_trial.png,0.5,83,552.5994357733289,None,553.6040674733231,554.8614345786627,554.3439219011343,554.8446855548536,d,0.46291597990784794,554.8614345786627,None,555.3526450942329,None,552.1025322646601,None,552.5994357733289,None,0.7,0.30000000000000004,-1,555.3898699142155,None,555.8781275037327,None,555.3898699142155,None,555.3898699142155,None,3,2,52,F,2021_Aug_02_0108,Social Reinforcement Learning,2021.1.4,60.07323886431752,
83,0,83,0,,,,,,,Social,UD,Observational,images/Observational_trial.png,-0.5,84,557.927907612524,None,558.9316318564815,560.1921894777915,559.6742536894744,560.1753472195123,None,,561.9377899158455,None,560.6863279515528,561.6907850344433,557.4304537833668,None,557.927907612524,None,0.7,0.30000000000000004,?,561.9823905324447,None,562.4714283682406,None,561.9823905324447,None,561.9823905324447,None,3,2,52,F,2021_Aug_02_0108,Social Reinforcement Learning,2021.1.4,60.07323886431752,
84,0,84,0,,,,,,,Social,UD,Observational,images/Observational_trial.png,-0.5,85,564.4844835678232,None,565.4836815931485,566.7491427167552,566.2329345320468,566.7491427167552,None,,568.4998283853231,None,567.2329835196142,568.2406453407602,563.9889967494528,None,564.4844835678232,None,0.7,0.30000000000000004,?,568.5500325530884,None,569.0069850808941,570.5125522863818,568.5500325530884,None,568.5500325530884,None,3,2,52,F,2021_Aug_02_0108,Social Reinforcement Learning,2021.1.4,60.07323886431752,
85,0,85,0,,,,,,,Social,UD,Private,images/Private_trial.png,0.5,86,571.0547464258852,None,572.0282678295043,573.2778060027631,572.7780857062316,573.2778060027631,a,0.673161739774514,573.2778060027631,None,573.980082030542,None,570.5379942415748,None,571.0547464258852,None,0.7,0.30000000000000004,1,574.036171428219,None,574.5085234500584,None,574.036171428219,None,574.036171428219,None,3,2,52,F,2021_Aug_02_0108,Social Reinforcement Learning,2021.1.4,60.07323886431752,
86,0,86,0,,,,,,,Social,UD,Private,images/Private_trial.png,0.5,87,576.5092444371548,None,577.5092452272656,578.7729799324879,578.2559188101441,578.7559448842076,a,0.7097969700116664,578.7559448842076,None,579.4884790609533,None,576.0204606258194,None,576.5092444371548,None,0.7,0.30000000000000004,1,579.5158443331602,None,580.021823587711,None,579.5158443331602,None,579.5158443331602,None,3,2,52,F,2021_Aug_02_0108,Social Reinforcement Learning,2021.1.4,60.07323886431752,
87,0,87,0,,,,,,,Social,UD,Private,images/Private_trial.png,0.5,88,582.037684908486,None,583.0345741949277,584.3028208965552,583.7918587323511,584.3028208965552,a,1.1589766645338386,584.2835802204208,None,585.4657499924826,None,581.5496584299253,None,582.037684908486,None,0.7,0.30000000000000004,-1,585.4919711668626,None,585.9846277652541,None,585.4919711668626,None,585.4919711668626,None,3,2,52,F,2021_Aug_02_0108,Social Reinforcement Learning,2021.1.4,60.07323886431752,
88,0,88,0,,,,,,,Social,UD,Observational,images/Observational_trial.png,-0.5,89,588.000071111077,None,588.999192889547,590.26235199027,589.7632878907607,590.26235199027,None,,592.0260896979191,None,590.7647590994602,591.7744396844064,587.516519098077,None,588.000071111077,None,0.7,0.30000000000000004,?,592.0632011352573,None,592.5491243068827,None,592.0632011352573,None,592.0632011352573,None,3,2,52,F,2021_Aug_02_0108,Social Reinforcement Learning,2021.1.4,60.07323886431752,
89,0,89,0,,,,,,,Social,UD,Observational,images/Observational_trial.png,-0.5,90,594.5592370890081,None,595.5584307686659,596.8215977706132,596.3221895726165,596.8381306958036,None,,598.5701990951959,None,597.3269591490971,598.3372730175033,594.0580835096771,None,594.5592370890081,None,0.7,0.30000000000000004,?,598.5931799757527,None,599.0739898674656,600.5843203284312,598.5931799757527,None,598.5931799757527,None,3,2,52,F,2021_Aug_02_0108,Social Reinforcement Learning,2021.1.4,60.07323886431752,
90,0,90,0,,,,,,,Social,UD,Private,images/Private_trial.png,0.5,91,601.104370090412,None,602.1029846100137,603.3633541820454,602.847012071521,603.3633541820454,a,0.8730205447645858,603.3633541820454,None,604.268024124048,None,600.604004658584,None,601.104370090412,None,0.7,0.30000000000000004,-1,604.3156955530285,None,604.8070579302148,None,604.3156955530285,None,604.3156955530285,None,3,2,52,F,2021_Aug_02_0108,Social Reinforcement Learning,2021.1.4,60.07323886431752,
91,0,91,0,,,,,,,Social,UD,Observational,images/Observational_trial.png,-0.5,92,606.8145182700246,None,607.8108232605737,609.0605787175591,608.5607225199346,609.0605787175591,None,,610.8248987457657,None,609.5631272587925,610.5754958416219,606.3178324402543,None,606.8145182700246,None,0.7,0.30000000000000004,?,610.8499631803134,None,611.3409142985474,None,610.8499631803134,None,610.8499631803134,None,3,2,52,F,2021_Aug_02_0108,Social Reinforcement Learning,2021.1.4,60.07323886431752,
92,0,92,0,,,,,,,Social,UD,Observational,images/Observational_trial.png,-0.5,93,613.3392921763589,None,614.3385514362017,615.587367832195,615.0876846714527,615.587367832195,None,,617.3522105266632,None,616.08907765802,617.1024453511927,612.8422594826552,None,613.3392921763589,None,0.7,0.30000000000000004,?,617.3645531934453,None,617.8522774500889,None,617.3645531934453,None,617.3645531934453,None,3,2,52,F,2021_Aug_02_0108,Social Reinforcement Learning,2021.1.4,60.07323886431752,
93,0,93,0,,,,,,,Social,UD,Private,images/Private_trial.png,0.5,94,619.8862827565172,None,620.8840964866686,622.148144870589,621.6352291277144,622.148144870589,a,0.9073209621128626,622.1309111064766,None,623.0667351966433,None,619.3975937599316,None,619.8862827565172,None,0.7,0.30000000000000004,1,623.1114183811005,None,623.5911572613404,None,623.1114183811005,None,623.1114183811005,None,3,2,52,F,2021_Aug_02_0108,Social Reinforcement Learning,2021.1.4,60.07323886431752,
94,0,94,0,,,,,,,Social,UD,Observational,images/Observational_trial.png,-0.5,95,625.6009014511365,None,626.5992315265466,627.8624048494967,627.3424613590469,627.8453042210313,None,,629.6073704238108,None,628.3523141907644,629.3576767544146,625.099886143289,None,625.6009014511365,None,0.7,0.30000000000000004,?,629.6356095718802,None,630.1097804564633,631.6227542734123,629.6356095718802,None,629.6356095718802,None,3,2,52,F,2021_Aug_02_0108,Social Reinforcement Learning,2021.1.4,60.07323886431752,
95,0,95,0,,,,,,,Social,UD,Private,images/Private_trial.png,0.5,96,632.1505290662753,None,633.1571969128563,634.4185110767721,633.9068563699257,634.4185110767721,a,1.105076065112371,634.4185110767721,None,635.547593285871,None,631.6600804661284,None,632.1505290662753,None,0.7,0.30000000000000004,1,635.5996416002745,None,636.0765960876597,None,635.5996416002745,None,635.5996416002745,None,3,2,52,F,2021_Aug_02_0108,Social Reinforcement Learning,2021.1.4,60.07323886431752,
96,0,96,0,,,,,,,Social,UD,Private,images/Private_trial.png,0.5,97,638.101882783696,None,639.0987965639215,640.3474336020299,639.8480767620495,640.3474336020299,a,0.7361898380913772,640.3474336020299,None,641.1169941199071,None,637.6085383833852,None,638.101882783696,None,0.7,0.30000000000000004,1,641.1502544985851,None,641.6251933825552,643.1433962323936,641.1502544985851,None,641.1502544985851,None,3,2,52,F,2021_Aug_02_0108,Social Reinforcement Learning,2021.1.4,60.07323886431752,
97,0,97,0,,,,,,,Social,UD,Private,images/Private_trial.png,0.5,98,643.6612723664148,None,644.6658424368943,645.9252401578706,645.409458244394,645.908945454692,a,0.6548577541834675,645.908945454692,None,646.5913218439266,None,643.1650068819872,None,643.6612723664148,None,0.7,0.30000000000000004,1,646.5958738995832,None,647.0906361753005,None,646.5958738995832,None,646.5958738995832,None,3,2,52,F,2021_Aug_02_0108,Social Reinforcement Learning,2021.1.4,60.07323886431752,
98,0,98,0,,,,,,,Social,UD,Private,images/Private_trial.png,0.5,99,649.0886537571205,None,650.088920028531,651.3549255467369,650.8374353877152,651.3372493137722,a,0.9217395186424255,651.3372493137722,None,652.2859812456475,None,648.6060016940464,None,649.0886537571205,None,0.7,0.30000000000000004,-1,652.2983381346567,None,652.7900201165467,None,652.2983381346567,None,652.2983381346567,None,3,2,52,F,2021_Aug_02_0108,Social Reinforcement Learning,2021.1.4,60.07323886431752,
99,0,99,0,,,,,,,Social,UD,Observational,images/Observational_trial.png,-0.5,100,654.8057253881125,None,655.7997473187279,657.0650073560537,656.5487794182845,657.0481500854366,None,,658.8153548520816,None,657.551566576527,658.5641279493575,654.3087294350844,None,654.8057253881125,None,0.7,0.30000000000000004,?,658.8610039617051,None,659.339781262388,None,658.8610039617051,None,658.8610039617051,None,3,2,52,F,2021_Aug_02_0108,Social Reinforcement Learning,2021.1.4,60.07323886431752,
