"trials.thisRepN	trials.thisTrialN	trials.thisN	trials.thisIndex	textbox.started	textbox.stopped	key_resp_2.keys	key_resp_2.rt	key_resp_2.started	key_resp_2.stopped	block_type	learning_type	trial_type	image_path	x_image	trial	person.started	person.stopped	text.started	text.stopped	text_2.started	text_2.stopped	key_resp.keys	key_resp.rt	key_resp.started	key_resp.stopped	text_4.started	text_4.stopped	line.started	line.stopped	text_5.started	text_5.stopped	reward_a	reward_d	reward	image.started	image.stopped	text_3.started	text_3.stopped	line_2.started	line_2.stopped	text_6.started	text_6.stopped	session	exp_id	age	sex(M or F)	date	expName	psychopyVersion	frameRate"
"				21.09539825	None	f	2.790322339	21.09539825	None																																		2	2	52	F	2021_Aug_01_2023	Social Reinforcement Learning	2021.1.4	60.14075003"
"0	0	0	0							Social	UD	Private	images/Private_trial.png	0.5	1	24.48234352	None	25.47797019	26.74348109	26.24927783	26.76001007	d	0.396811933	26.74348109	None	None	None	23.98911527	None	24.48234352	None	0.7	0.3	-1	27.20103056	None	27.6957794	None	27.20103056	None	27.20103056	None	2	2	52	F	2021_Aug_01_2023	Social Reinforcement Learning	2021.1.4	60.14075003"
"1	0	1	0							Social	UD	Private	images/Private_trial.png	0.5	2	29.67557556	None	30.67288283	31.92205201	31.42282554	31.92205201	d	1.177709687	31.92205201	None	33.12092115	None	29.18676015	None	29.67557556	None	0.7	0.3	-1	33.14072325	None	33.62014252	35.13419012	33.14072325	None	33.14072325	None	2	2	52	F	2021_Aug_01_2023	Social Reinforcement Learning	2021.1.4	60.14075003"
"2	0	2	0							Social	UD	Private	images/Private_trial.png	0.5	3	35.65146299	None	36.65374803	37.91614545	37.39996729	37.89932808	a	0.96800121	37.89932808	None	38.89860705	None	35.15851523	None	35.65146299	None	0.7	0.3	1	38.90642812	None	39.39793825	40.90934012	38.90642812	None	38.90642812	None	2	2	52	F	2021_Aug_01_2023	Social Reinforcement Learning	2021.1.4	60.14075003"
"3	0	3	0							Social	UD	Private	images/Private_trial.png	0.5	4	41.43000262	None	42.42928756	43.69599313	43.18009388	43.69599313	a	0.543722632	43.69599313	None	44.26068479	None	40.95203678	None	41.43000262	None	0.7	0.3	-1	44.27993499	None	44.75986784	46.27472808	44.27993499	None	44.27993499	None	2	2	52	F	2021_Aug_01_2023	Social Reinforcement Learning	2021.1.4	60.14075003"
"4	0	4	0							Social	UD	Private	images/Private_trial.png	0.5	5	46.77491731	None	47.77517213	49.02324107	48.52282072	49.02324107	a	0.799955121	49.02324107	None	49.85621064	None	46.29140757	None	46.77491731	None	0.7	0.3	1	49.88883446	None	50.37193689	None	49.88883446	None	49.88883446	None	2	2	52	F	2021_Aug_01_2023	Social Reinforcement Learning	2021.1.4	60.14075003"
"5	0	5	0							Social	UD	Observational	images/Observational_trial.png	-0.5	6	52.40621163	None	53.40228867	54.66699602	54.15175376	54.66699602	None		56.41561287	None	55.15333953	56.17274021	51.90719889	None	52.40621163	None	0.7	0.3	?	56.43325279	None	56.91504362	None	56.43325279	None	56.43325279	None	2	2	52	F	2021_Aug_01_2023	Social Reinforcement Learning	2021.1.4	60.14075003"
"6	0	6	0							Social	UD	Private	images/Private_trial.png	0.5	7	58.93397457	None	59.92869813	61.19125397	60.67819087	61.19125397	d	1.919804508	61.17460687	None	63.10957459	None	58.4333563	None	58.93397457	None	0.7	0.3	-1	63.12989027	None	63.60986421	None	63.12989027	None	63.12989027	None	2	2	52	F	2021_Aug_01_2023	Social Reinforcement Learning	2021.1.4	60.14075003"
"7	0	7	0							Social	UD	Observational	images/Observational_trial.png	-0.5	8	65.64067149	None	66.64615969	67.90349361	67.39110922	67.90349361	None		69.65440221	None	68.39110014	69.40211919	65.1430549	None	65.64067149	None	0.7	0.3	?	69.6979874	None	70.18600953	None	69.6979874	None	69.6979874	None	2	2	52	F	2021_Aug_01_2023	Social Reinforcement Learning	2021.1.4	60.14075003"
"8	0	8	0							Social	UD	Private	images/Private_trial.png	0.5	9	72.20492073	None	73.18476746	74.4492591	73.93786395	74.4492591	d	0.690651504	74.43232558	None	75.14790187	None	71.68805793	None	72.20492073	None	0.7	0.3	-1	75.15919908	None	75.6475669	None	75.15919908	None	75.15919908	None	2	2	52	F	2021_Aug_01_2023	Social Reinforcement Learning	2021.1.4	60.14075003"
"9	0	9	0							Social	UD	Observational	images/Observational_trial.png	-0.5	10	77.6648611	None	78.66373952	79.92786337	79.4172856	79.92786337	None		81.67566718	None	80.41028274	81.42545112	77.16886505	None	77.6648611	None	0.7	0.3	?	81.70978788	None	82.19131679	None	81.70978788	None	81.70978788	None	2	2	52	F	2021_Aug_01_2023	Social Reinforcement Learning	2021.1.4	60.14075003"
"10	0	10	0							Social	UD	Private	images/Private_trial.png	0.5	11	84.18995501	None	85.18848183	86.43766642	85.93802316	86.43766642	a	0.594791036	86.43766642	None	87.0535375	None	83.69336439	None	84.18995501	None	0.7	0.3	-1	87.06451708	None	87.55324322	None	87.06451708	None	87.06451708	None	2	2	52	F	2021_Aug_01_2023	Social Reinforcement Learning	2021.1.4	60.14075003"
"11	0	11	0							Social	UD	Private	images/Private_trial.png	0.5	12	89.55256727	None	90.55023206	91.79910297	91.30032371	91.81552805	a	1.219469259	91.79910297	None	93.04853089	None	89.06865535	None	89.55256727	None	0.7	0.3	1	93.06869525	None	93.55747274	None	93.06869525	None	93.06869525	None	2	2	52	F	2021_Aug_01_2023	Social Reinforcement Learning	2021.1.4	60.14075003"
"12	0	12	0							Social	UD	Private	images/Private_trial.png	0.5	13	95.5623877	None	96.56255521	97.8269149	97.31042622	97.81023225	d	0.087437363	97.81023225	None	None	None	95.07173288	None	95.5623877	None	0.7	0.3	-1	97.93524114	None	98.42620411	99.92579719	97.93524114	None	97.93524114	None	2	2	52	F	2021_Aug_01_2023	Social Reinforcement Learning	2021.1.4	60.14075003"
"13	0	13	0							Social	UD	Private	images/Private_trial.png	0.5	14	100.4597223	None	101.4430238	102.7054272	102.1895335	102.6887576	d	1.398783685	102.6887576	None	104.1042859	None	99.9450679	None	100.4597223	None	0.7	0.3	-1	104.1088742	None	104.6125526	None	104.1088742	None	104.1088742	None	2	2	52	F	2021_Aug_01_2023	Social Reinforcement Learning	2021.1.4	60.14075003"
"14	0	14	0							Social	UD	Private	images/Private_trial.png	0.5	15	106.602428	None	107.601078	108.8664854	108.354681	108.8664854	a	1.366563661	108.8498648	None	110.2342915	None	106.1192572	None	106.602428	None	0.7	0.3	1	110.2667696	None	110.7482601	None	110.2667696	None	110.2667696	None	2	2	52	F	2021_Aug_01_2023	Social Reinforcement Learning	2021.1.4	60.14075003"
"15	0	15	0							Social	UD	Private	images/Private_trial.png	0.5	16	112.7571313	None	113.763916	115.0274651	114.515923	115.0274651	a	1.157157802	115.0104656	None	116.1927145	None	112.2656235	None	112.7571313	None	0.7	0.3	1	116.1971929	None	116.6925999	None	116.1971929	None	116.1971929	None	2	2	52	F	2021_Aug_01_2023	Social Reinforcement Learning	2021.1.4	60.14075003"
"16	0	16	0							Social	UD	Observational	images/Observational_trial.png	-0.5	17	118.7114385	None	119.7085466	120.9794631	120.4613207	120.9794631	None		122.736895	None	121.471477	122.4705375	118.2143398	None	118.7114385	None	0.7	0.3	?	122.749236	None	123.2365604	124.7503326	122.749236	None	122.749236	None	2	2	52	F	2021_Aug_01_2023	Social Reinforcement Learning	2021.1.4	60.14075003"
"17	0	17	0							Social	UD	Observational	images/Observational_trial.png	-0.5	18	125.2710236	None	126.266862	127.5159486	127.0162686	127.5159486	None		129.2809293	None	128.0155243	129.0294546	124.7725505	None	125.2710236	None	0.7	0.3	?	129.3027826	None	129.7815682	131.2957548	129.3027826	None	129.3027826	None	2	2	52	F	2021_Aug_01_2023	Social Reinforcement Learning	2021.1.4	60.14075003"
"18	0	18	0							Social	UD	Private	images/Private_trial.png	0.5	19	131.8134093	None	132.8108142	134.0600375	133.5654569	134.077116	a	1.092170594	134.0600375	None	135.1798679	None	131.3228782	None	131.8134093	None	0.7	0.3	1	135.198774	None	135.6915914	None	135.198774	None	135.198774	None	2	2	52	F	2021_Aug_01_2023	Social Reinforcement Learning	2021.1.4	60.14075003"
"19	0	19	0							Social	UD	Private	images/Private_trial.png	0.5	20	137.6894699	None	138.6888145	139.9540314	139.4379615	139.9376143	a	0.144327787	139.9376143	None	None	None	137.2069126	None	137.6894699	None	0.7	0.3	1	140.1087746	None	140.6040694	142.1027574	140.1087746	None	140.1087746	None	2	2	52	F	2021_Aug_01_2023	Social Reinforcement Learning	2021.1.4	60.14075003"
"20	0	20	0							Social	UD	Observational	images/Observational_trial.png	-0.5	21	142.6352414	None	143.6343738	144.8834067	144.3839768	144.8834067	None		146.6478786	None	145.3825945	146.3980232	142.1399703	None	142.6352414	None	0.7	0.3	?	146.6796285	None	147.1675779	None	146.6796285	None	146.6796285	None	2	2	52	F	2021_Aug_01_2023	Social Reinforcement Learning	2021.1.4	60.14075003"
"21	0	21	0							Social	UD	Observational	images/Observational_trial.png	-0.5	22	149.1795392	None	150.1777413	151.4432945	150.927428	151.4267078	None		153.1917181	None	151.9339592	152.944785	148.6810239	None	149.1795392	None	0.7	0.3	?	153.2095828	None	153.6954598	None	153.2095828	None	153.2095828	None	2	2	52	F	2021_Aug_01_2023	Social Reinforcement Learning	2021.1.4	60.14075003"
"22	0	22	0							Social	UD	Private	images/Private_trial.png	0.5	23	155.7064243	None	156.7068004	157.9705683	157.4547528	157.9542712	d	1.301218527	157.9542712	None	159.2864728	None	155.2211759	None	155.7064243	None	0.7	0.3	-1	159.3135006	None	159.8057918	None	159.3135006	None	159.3135006	None	2	2	52	F	2021_Aug_01_2023	Social Reinforcement Learning	2021.1.4	60.14075003"
"23	0	23	0							Social	UD	Observational	images/Observational_trial.png	-0.5	24	161.8190488	None	162.8328471	164.0983584	163.5819701	164.0815158	None		165.8467928	None	164.5872785	165.5946445	161.3324458	None	161.8190488	None	0.7	0.3	?	165.8605157	None	166.3459363	None	165.8605157	None	165.8605157	None	2	2	52	F	2021_Aug_01_2023	Social Reinforcement Learning	2021.1.4	60.14075003"
"24	0	24	0							Social	UD	Observational	images/Observational_trial.png	-0.5	25	168.3960179	None	169.394854	170.6645711	170.1425465	170.6645711	None		172.4101448	None	171.1431442	172.1577773	167.9039258	None	168.3960179	None	0.7	0.3	?	172.4543115	None	172.9232246	174.4385877	172.4543115	None	172.4543115	None	2	2	52	F	2021_Aug_01_2023	Social Reinforcement Learning	2021.1.4	60.14075003"
"25	0	25	0							Social	UD	Observational	images/Observational_trial.png	-0.5	26	174.95719	None	175.9537379	177.2030209	176.7203206	177.2197873	None		178.9848561	None	177.7190809	178.7345326	174.4634627	None	174.95719	None	0.7	0.3	?	178.9925148	None	179.484096	None	178.9925148	None	178.9925148	None	2	2	52	F	2021_Aug_01_2023	Social Reinforcement Learning	2021.1.4	60.14075003"
"26	0	26	0							Social	UD	Observational	images/Observational_trial.png	-0.5	27	181.4991475	None	182.4980109	183.7631259	183.2475123	183.7631259	None		185.5286388	None	184.2628162	185.2785005	181.0104853	None	181.4991475	None	0.7	0.3	?	185.5442812	None	186.0275575	187.5265063	185.5442812	None	185.5442812	None	2	2	52	F	2021_Aug_01_2023	Social Reinforcement Learning	2021.1.4	60.14075003"
"27	0	27	0							Social	UD	Private	images/Private_trial.png	0.5	28	188.0755614	None	189.0747559	190.3238745	189.8278674	190.3407417	d	0.641552086	190.3238745	None	190.9903	None	187.5875405	None	188.0755614	None	0.7	0.3	-1	191.0088541	None	191.4893361	None	191.0088541	None	191.0088541	None	2	2	52	F	2021_Aug_01_2023	Social Reinforcement Learning	2021.1.4	60.14075003"
"28	0	28	0							Social	UD	Private	images/Private_trial.png	0.5	29	193.4878388	None	194.4877946	195.75256	195.241281	195.75256	d	0.552761637	195.7355297	None	196.3183361	None	193.0046906	None	193.4878388	None	0.7	0.3	1	196.3327488	None	196.8177779	None	196.3327488	None	196.3327488	None	2	2	52	F	2021_Aug_01_2023	Social Reinforcement Learning	2021.1.4	60.14075003"
"29	0	29	0							Social	UD	Observational	images/Observational_trial.png	-0.5	30	198.8357319	None	199.832394	201.0806814	200.58265	201.0970216	None		202.8621133	None	201.5964459	202.5960007	198.3394834	None	198.8357319	None	0.7	0.3	?	202.8866778	None	203.3782203	None	202.8866778	None	202.8866778	None	2	2	52	F	2021_Aug_01_2023	Social Reinforcement Learning	2021.1.4	60.14075003"
"30	0	30	0							Social	UD	Observational	images/Observational_trial.png	-0.5	31	205.3771525	None	206.3754699	207.640999	207.1274887	207.640999	None		209.3891615	None	208.1237605	209.1392449	204.8789781	None	205.3771525	None	0.7	0.3	?	209.393619	None	209.8897664	None	209.393619	None	209.393619	None	2	2	52	F	2021_Aug_01_2023	Social Reinforcement Learning	2021.1.4	60.14075003"
"31	0	31	0							Social	UD	Observational	images/Observational_trial.png	-0.5	32	211.9047001	None	212.9197535	214.1731309	213.6685668	214.1731309	None		215.9334451	None	214.6702802	215.6835432	211.4161146	None	211.9047001	None	0.7	0.3	?	215.9508875	None	216.4355931	217.9479068	215.9508875	None	215.9508875	None	2	2	52	F	2021_Aug_01_2023	Social Reinforcement Learning	2021.1.4	60.14075003"
"32	0	32	0							Social	UD	Observational	images/Observational_trial.png	-0.5	33	218.4553833	None	219.4638795	220.7127165	220.2157008	220.7127165	None		222.4771089	None	221.2118201	222.2273705	217.9666039	None	218.4553833	None	0.7	0.3	?	222.4839242	None	222.9813902	None	222.4839242	None	222.4839242	None	2	2	52	F	2021_Aug_01_2023	Social Reinforcement Learning	2021.1.4	60.14075003"
"33	0	33	0							Social	UD	Observational	images/Observational_trial.png	-0.5	34	225.0064142	None	226.0009568	227.2558489	226.7396774	227.2394546	None		229.0041161	None	227.7386305	228.7543595	224.4986145	None	225.0064142	None	0.7	0.3	?	229.0084527	None	229.5035184	231.002317	229.0084527	None	229.0084527	None	2	2	52	F	2021_Aug_01_2023	Social Reinforcement Learning	2021.1.4	60.14075003"
"34	0	34	0							Social	UD	Observational	images/Observational_trial.png	-0.5	35	231.5020215	None	232.5010631	233.752899	233.2605134	233.7668743	None		235.5150605	None	234.2526204	235.2651964	231.0189649	None	231.5020215	None	0.7	0.3	?	235.5250252	None	236.0145078	None	235.5250252	None	235.5250252	None	2	2	52	F	2021_Aug_01_2023	Social Reinforcement Learning	2021.1.4	60.14075003"
"35	0	35	0							Social	UD	Observational	images/Observational_trial.png	-0.5	36	238.0128889	None	239.0113157	240.2604367	239.7775046	240.2774007	None		242.0420262	None	240.7664101	241.7752586	237.5354599	None	238.0128889	None	0.7	0.3	?	242.0474295	None	242.5417295	None	242.0474295	None	242.0474295	None	2	2	52	F	2021_Aug_01_2023	Social Reinforcement Learning	2021.1.4	60.14075003"
"36	0	36	0							Social	UD	Private	images/Private_trial.png	0.5	37	244.5625667	None	245.5568395	246.8208033	246.3047318	246.8041993	d	1.252270418	246.8041993	None	248.0882709	None	244.0591249	None	244.5625667	None	0.7	0.3	-1	248.1322219	None	248.6150328	None	248.1322219	None	248.1322219	None	2	2	52	F	2021_Aug_01_2023	Social Reinforcement Learning	2021.1.4	60.14075003"
"37	0	37	0							Social	UD	Observational	images/Observational_trial.png	-0.5	38	250.624856	None	251.6388977	252.8988378	252.372296	252.8820264	None		254.6468798	None	253.3680088	254.3805421	250.1244732	None	250.624856	None	0.7	0.3	?	254.659235	None	255.1465409	None	254.659235	None	254.659235	None	2	2	52	F	2021_Aug_01_2023	Social Reinforcement Learning	2021.1.4	60.14075003"
"38	0	38	0							Social	UD	Observational	images/Observational_trial.png	-0.5	39	257.1472133	None	258.1454016	259.4093832	258.9119258	259.4261472	None		261.1576291	None	259.8918456	260.8911286	256.6617599	None	257.1472133	None	0.7	0.3	?	261.1670102	None	261.6573218	None	261.1670102	None	261.1670102	None	2	2	52	F	2021_Aug_01_2023	Social Reinforcement Learning	2021.1.4	60.14075003"
"39	0	39	0							Social	UD	Private	images/Private_trial.png	0.5	40	263.6588368	None	264.6712714	265.9352218	265.4230002	265.9352218	a	0.480552707	265.915289	None	266.4194165	None	263.1786033	None	263.6588368	None	0.7	0.3	1	266.4377944	None	266.9223108	None	266.4377944	None	266.4377944	None	2	2	52	F	2021_Aug_01_2023	Social Reinforcement Learning	2021.1.4	60.14075003"
"40	0	40	0							Social	SD	Private	images/Private_trial.png	0.5	41	268.9195161	None	269.9161988	271.1712109	270.6824607	271.1962325	a	0.668046485	271.1712109	None	271.8649332	None	268.4342452	None	268.9195161	None	0.7	0.3	1	271.8851181	None	272.3639041	273.879172	271.8851181	None	271.8851181	None	2	2	52	F	2021_Aug_01_2023	Social Reinforcement Learning	2021.1.4	60.14075003"
"41	0	41	0							Social	SD	Observational	images/Observational_trial.png	-0.5	42	274.3991396	None	275.3958733	276.6585338	276.1605095	276.6771428	None		278.4247412	None	277.1592204	278.1582395	273.902602	None	274.3991396	None	0.7	0.3	?	278.4375127	None	278.924145	None	278.4375127	None	278.4375127	None	2	2	52	F	2021_Aug_01_2023	Social Reinforcement Learning	2021.1.4	60.14075003"
"42	0	42	0							Social	SD	Observational	images/Observational_trial.png	-0.5	43	280.9395517	None	281.9400356	283.2032188	282.6875009	283.2032188	None		284.951936	None	283.6866337	284.6882626	280.441079	None	280.9395517	None	0.7	0.3	?	284.9756061	None	285.4514722	286.9667169	284.9756061	None	284.9756061	None	2	2	52	F	2021_Aug_01_2023	Social Reinforcement Learning	2021.1.4	60.14075003"
"43	0	43	0							Social	SD	Observational	images/Observational_trial.png	-0.5	44	287.4661883	None	288.4670649	289.7296275	289.2174872	289.7296275	None		291.4790736	None	290.2193634	291.2293023	286.9834339	None	287.4661883	None	0.7	0.3	?	291.4838969	None	291.9786663	None	291.4838969	None	291.4838969	None	2	2	52	F	2021_Aug_01_2023	Social Reinforcement Learning	2021.1.4	60.14075003"
"44	0	44	0							Social	SD	Private	images/Private_trial.png	0.5	45	293.9963425	None	294.992271	296.2414252	295.7419218	296.2414252	a	0.605675373	296.2414252	None	296.8746221	None	293.4970856	None	293.9963425	None	0.7	0.3	1	296.9026608	None	297.389977	None	296.9026608	None	296.9026608	None	2	2	52	F	2021_Aug_01_2023	Social Reinforcement Learning	2021.1.4	60.14075003"
"45	0	45	0							Social	SD	Observational	images/Observational_trial.png	-0.5	46	299.4093946	None	300.4073079	301.6699349	301.1536402	301.6531278	None		303.4187153	None	302.152389	303.153688	298.9109263	None	299.4093946	None	0.7	0.3	?	303.4846238	None	303.9486748	None	303.4846238	None	303.4846238	None	2	2	52	F	2021_Aug_01_2023	Social Reinforcement Learning	2021.1.4	60.14075003"
"46	0	46	0							Social	SD	Observational	images/Observational_trial.png	-0.5	47	305.9344909	None	306.9317342	308.1967339	307.6809065	308.1801026	None		309.9456735	None	308.6794677	309.6936508	305.4494772	None	305.9344909	None	0.7	0.3	?	309.9606045	None	310.4445188	311.9479653	309.9606045	None	309.9606045	None	2	2	52	F	2021_Aug_01_2023	Social Reinforcement Learning	2021.1.4	60.14075003"
"47	0	47	0							Social	SD	Observational	images/Observational_trial.png	-0.5	48	312.4597389	None	313.4589764	314.7247058	314.2109581	314.7247058	None		316.472446	None	315.2111919	316.2228186	311.9746438	None	312.4597389	None	0.7	0.3	?	316.4770687	None	316.9719289	None	316.4770687	None	316.4770687	None	2	2	52	F	2021_Aug_01_2023	Social Reinforcement Learning	2021.1.4	60.14075003"
"48	0	48	0							Social	SD	Private	images/Private_trial.png	0.5	49	318.9910538	None	320.0043251	321.2681333	320.7517355	321.2514116	a	0.061811704	321.2514116	None	None	None	318.4991008	None	318.9910538	None	0.7	0.3	1	321.3499177	None	321.8361111	323.3420663	321.3499177	None	321.3499177	None	2	2	52	F	2021_Aug_01_2023	Social Reinforcement Learning	2021.1.4	60.14075003"
"49	0	49	0							Social	SD	Private	images/Private_trial.png	0.5	50	323.8562198	None	324.8486796	326.1136355	325.6144434	326.1136355	a	0.677444996	326.1136355	None	326.8127385	None	323.3703713	None	323.8562198	None	0.7	0.3	-1	326.8195265	None	327.3165074	None	326.8195265	None	326.8195265	None	2	2	52	F	2021_Aug_01_2023	Social Reinforcement Learning	2021.1.4	60.14075003"
"50	0	50	0							Social	SD	Private	images/Private_trial.png	0.5	51	329.3276197	None	330.3452224	331.6083721	331.0923397	331.5914694	a	0.622084644	331.5914694	None	332.2413781	None	328.8382421	None	329.3276197	None	0.7	0.3	1	332.2650708	None	332.7404684	334.2557849	332.2650708	None	332.2650708	None	2	2	52	F	2021_Aug_01_2023	Social Reinforcement Learning	2021.1.4	60.14075003"
"51	0	51	0							Social	SD	Observational	images/Observational_trial.png	-0.5	52	334.7730368	None	335.7778384	337.0400418	336.5222506	337.0400418	None		338.8014915	None	337.5361556	338.5353157	334.2782951	None	334.7730368	None	0.7	0.3	?	338.8140462	None	339.3010305	340.8001321	338.8140462	None	338.8140462	None	2	2	52	F	2021_Aug_01_2023	Social Reinforcement Learning	2021.1.4	60.14075003"
"52	0	52	0							Social	SD	Private	images/Private_trial.png	0.5	53	341.3327148	None	342.3337309	343.5981352	343.0810247	343.5811425	a	0.970208814	343.5811425	None	344.5796846	None	340.8347537	None	341.3327148	None	0.7	0.3	1	344.59254	None	345.0790463	346.5928548	344.59254	None	344.59254	None	2	2	52	F	2021_Aug_01_2023	Social Reinforcement Learning	2021.1.4	60.14075003"
"53	0	53	0							Social	SD	Private	images/Private_trial.png	0.5	54	347.1124041	None	348.111542	349.3750231	348.8591563	349.3580398	a	7.680761536	349.3580398	None	357.0677245	None	346.6143983	None	347.1124041	None	0.7	0.3	1	357.0721406	None	357.5674342	None	357.0721406	None	357.0721406	None	2	2	52	F	2021_Aug_01_2023	Social Reinforcement Learning	2021.1.4	60.14075003"
"54	0	54	0							Social	SD	Observational	images/Observational_trial.png	-0.5	55	359.5819673	None	360.5826358	361.846732	361.3528471	361.8632937	None		363.6117091	None	362.3486295	363.3620762	359.0895343	None	359.5819673	None	0.7	0.3	?	363.6240441	None	364.1112714	None	363.6240441	None	363.6240441	None	2	2	52	F	2021_Aug_01_2023	Social Reinforcement Learning	2021.1.4	60.14075003"
"55	0	55	0							Social	SD	Private	images/Private_trial.png	0.5	56	366.1259535	None	367.1261625	368.3919882	367.8743551	368.3743954	a	1.136302905	368.3743954	None	369.5263024	None	365.6309194	None	366.1259535	None	0.7	0.3	-1	369.5688039	None	370.055339	None	369.5688039	None	369.5688039	None	2	2	52	F	2021_Aug_01_2023	Social Reinforcement Learning	2021.1.4	60.14075003"
"56	0	56	0							Social	SD	Private	images/Private_trial.png	0.5	57	372.0377402	None	373.0361679	374.301725	373.7853754	374.2850874	a	1.553559266	374.2850874	None	375.867253	None	371.5541704	None	372.0377402	None	0.7	0.3	1	375.884586	None	376.3684442	377.8817455	375.884586	None	375.884586	None	2	2	52	F	2021_Aug_01_2023	Social Reinforcement Learning	2021.1.4	60.14075003"
"57	0	57	0							Social	SD	Private	images/Private_trial.png	0.5	58	378.3860821	None	379.3982251	380.6468305	380.1463066	380.6468305	a	0.57169061	380.6468305	None	381.2453047	None	377.8995509	None	378.3860821	None	0.7	0.3	-1	381.2600717	None	381.7457333	None	381.2600717	None	381.2600717	None	2	2	52	F	2021_Aug_01_2023	Social Reinforcement Learning	2021.1.4	60.14075003"
"58	0	58	0							Social	SD	Private	images/Private_trial.png	0.5	59	383.7434116	None	384.7423895	385.9914718	385.4915165	385.9914718	a	0.096490195	385.9914718	None	None	None	383.2598868	None	383.7434116	None	0.7	0.3	-1	386.1116582	None	386.606859	None	386.1116582	None	386.1116582	None	2	2	52	F	2021_Aug_01_2023	Social Reinforcement Learning	2021.1.4	60.14075003"
"59	0	59	0							Social	SD	Private	images/Private_trial.png	0.5	60	388.6245301	None	389.6050204	390.8729419	390.3538581	390.8729419	d	0.017352283	390.8560653	None	None	None	388.1220179	None	388.6245301	None	0.7	0.3	-1	390.9137032	None	391.3856574	392.9008064	390.9137032	None	390.9137032	None	2	2	52	F	2021_Aug_01_2023	Social Reinforcement Learning	2021.1.4	60.14075003"
"60	0	60	0							Social	SD	Private	images/Private_trial.png	0.5	61	393.4027849	None	394.4000254	395.6649765	395.150068	395.6649765	a	0.618737684	395.6483625	None	396.2977111	None	392.917666	None	393.4027849	None	0.7	0.3	1	396.3074976	None	396.8139853	None	396.3074976	None	396.3074976	None	2	2	52	F	2021_Aug_01_2023	Social Reinforcement Learning	2021.1.4	60.14075003"
"61	0	61	0							Social	SD	Private	images/Private_trial.png	0.5	62	398.7959046	None	399.7963763	401.0435362	400.5438293	401.0435362	a	1.085042501	401.0435362	None	402.1605987	None	398.3128555	None	398.7959046	None	0.7	0.3	-1	402.1974007	None	402.6754843	None	402.1974007	None	402.1974007	None	2	2	52	F	2021_Aug_01_2023	Social Reinforcement Learning	2021.1.4	60.14075003"
"62	0	62	0							Social	SD	Private	images/Private_trial.png	0.5	63	404.6749344	None	405.6727133	406.9215013	406.4213737	406.9215013	a	1.062471457	406.9215013	None	408.0041762	None	404.1902904	None	404.6749344	None	0.7	0.3	1	408.0267235	None	408.5031949	410.0182368	408.0267235	None	408.0267235	None	2	2	52	F	2021_Aug_01_2023	Social Reinforcement Learning	2021.1.4	60.14075003"
"63	0	63	0							Social	SD	Private	images/Private_trial.png	0.5	64	410.5177639	None	411.5171204	412.7823405	412.2715696	412.7823405	d	0.141808085	412.7655765	None	None	None	410.0348183	None	410.5177639	None	0.7	0.3	-1	412.9402888	None	413.431701	None	412.9402888	None	412.9402888	None	2	2	52	F	2021_Aug_01_2023	Social Reinforcement Learning	2021.1.4	60.14075003"
"64	0	64	0							Social	SD	Private	images/Private_trial.png	0.5	65	415.4310847	None	416.4293342	417.6944014	417.1786456	417.6779625	a	1.658095678	417.6779625	None	419.3603347	None	414.9470954	None	415.4310847	None	0.7	0.3	1	419.3854101	None	419.8631227	421.3739995	419.3854101	None	419.3854101	None	2	2	52	F	2021_Aug_01_2023	Social Reinforcement Learning	2021.1.4	60.14075003"
"65	0	65	0							Social	SD	Private	images/Private_trial.png	0.5	66	421.8750207	None	422.8735507	424.1386824	423.6224762	424.1217935	a	1.433545139	424.1217935	None	425.5713465	None	421.3908157	None	421.8750207	None	0.7	0.3	1	425.5956337	None	426.0700183	427.5853905	425.5956337	None	425.5956337	None	2	2	52	F	2021_Aug_01_2023	Social Reinforcement Learning	2021.1.4	60.14075003"
"66	0	66	0							Social	SD	Observational	images/Observational_trial.png	-0.5	67	428.1017844	None	429.1008663	430.3500525	429.8500086	430.3500525	None		432.1143635	None	430.8591385	431.8645872	427.6163037	None	428.1017844	None	0.7	0.3	?	432.1256161	None	432.6143098	None	432.1256161	None	432.1256161	None	2	2	52	F	2021_Aug_01_2023	Social Reinforcement Learning	2021.1.4	60.14075003"
"67	0	67	0							Social	SD	Observational	images/Observational_trial.png	-0.5	68	434.6303521	None	435.6294517	436.8931201	436.3768147	436.8764769	None		438.6415046	None	437.3779509	438.3916983	434.130857	None	434.6303521	None	0.7	0.3	?	438.6460708	None	439.1435736	None	438.6460708	None	438.6460708	None	2	2	52	F	2021_Aug_01_2023	Social Reinforcement Learning	2021.1.4	60.14075003"
"68	0	68	0							Social	SD	Private	images/Private_trial.png	0.5	69	441.1724763	None	442.1729196	443.4376964	442.9204631	443.4207163	a	2.745932448	443.4207163	None	446.1856057	None	440.672871	None	441.1724763	None	0.7	0.3	1	446.2097365	None	446.7009077	None	446.2097365	None	446.2097365	None	2	2	52	F	2021_Aug_01_2023	Social Reinforcement Learning	2021.1.4	60.14075003"
"69	0	69	0							Social	SD	Observational	images/Observational_trial.png	-0.5	70	448.7161199	None	449.7143651	450.9635595	450.4644646	450.9635595	None		452.7311204	None	451.463076	452.4849572	448.2240599	None	448.7161199	None	0.7	0.3	?	452.7490554	None	453.2279702	None	452.7490554	None	452.7490554	None	2	2	52	F	2021_Aug_01_2023	Social Reinforcement Learning	2021.1.4	60.14075003"
"70	0	70	0							Social	SD	Observational	images/Observational_trial.png	-0.5	71	455.2436415	None	456.2421576	457.5079806	456.9943028	457.5079806	None		459.2544717	None	457.9903277	459.0047676	454.7575765	None	455.2436415	None	0.7	0.3	?	459.2771439	None	459.7673116	461.2706171	459.2771439	None	459.2771439	None	2	2	52	F	2021_Aug_01_2023	Social Reinforcement Learning	2021.1.4	60.14075003"
"71	0	71	0							Social	SD	Observational	images/Observational_trial.png	-0.5	72	461.7873657	None	462.7856922	464.0517416	463.5351008	464.0517416	None		465.7996698	None	464.5405309	465.5496881	461.2893955	None	461.7873657	None	0.7	0.3	?	465.8048167	None	466.3044442	None	465.8048167	None	465.8048167	None	2	2	52	F	2021_Aug_01_2023	Social Reinforcement Learning	2021.1.4	60.14075003"
"72	0	72	0							Social	SD	Observational	images/Observational_trial.png	-0.5	73	468.2988114	None	469.2977527	470.561675	470.0599194	470.561675	None		472.3274099	None	471.0617434	472.0771472	467.8145815	None	468.2988114	None	0.7	0.3	?	472.3449526	None	472.8260912	474.3414492	472.3449526	None	472.3449526	None	2	2	52	F	2021_Aug_01_2023	Social Reinforcement Learning	2021.1.4	60.14075003"
"73	0	73	0							Social	SD	Private	images/Private_trial.png	0.5	74	474.8638994	None	475.8581698	477.1222928	476.6254375	477.1388949	a	1.703392234	477.1057971	None	478.8376491	None	474.3615326	None	474.8638994	None	0.7	0.3	-1	478.8624677	None	479.3550073	None	478.8624677	None	478.8624677	None	2	2	52	F	2021_Aug_01_2023	Social Reinforcement Learning	2021.1.4	60.14075003"
"74	0	74	0							Social	SD	Observational	images/Observational_trial.png	-0.5	75	481.3682952	None	482.3679096	483.6169733	483.1167509	483.6169733	None		485.3812232	None	484.1205451	485.1318067	480.8744135	None	481.3682952	None	0.7	0.3	?	485.3926816	None	485.8806934	None	485.3926816	None	485.3926816	None	2	2	52	F	2021_Aug_01_2023	Social Reinforcement Learning	2021.1.4	60.14075003"
"75	0	75	0							Social	SD	Observational	images/Observational_trial.png	-0.5	76	487.8789445	None	488.8954806	490.1617219	489.627862	490.1441018	None		491.9011528	None	490.6261787	491.6330199	487.3959084	None	487.8789445	None	0.7	0.3	?	491.9046385	None	492.391334	None	491.9046385	None	491.9046385	None	2	2	52	F	2021_Aug_01_2023	Social Reinforcement Learning	2021.1.4	60.14075003"
"76	0	76	0							Social	SD	Observational	images/Observational_trial.png	-0.5	77	494.3908264	None	495.3888341	496.6538018	496.1378401	496.6372009	None		498.4197729	None	497.1533253	498.1679209	493.9074652	None	494.3908264	None	0.7	0.3	?	498.4399981	None	498.9276354	500.4340804	498.4399981	None	498.4399981	None	2	2	52	F	2021_Aug_01_2023	Social Reinforcement Learning	2021.1.4	60.14075003"
"77	0	77	0							Social	SD	Observational	images/Observational_trial.png	-0.5	78	500.9356417	None	501.9355086	503.1977132	502.6816674	503.181076	None		504.9466623	None	503.6817705	504.6969697	500.4504561	None	500.9356417	None	0.7	0.3	?	504.9722888	None	505.4491927	506.9610687	504.9722888	None	504.9722888	None	2	2	52	F	2021_Aug_01_2023	Social Reinforcement Learning	2021.1.4	60.14075003"
"78	0	78	0							Social	SD	Observational	images/Observational_trial.png	-0.5	79	507.4601991	None	508.4596449	509.7088156	509.2088899	509.7088156	None		511.4734751	None	510.2085095	511.2240516	506.9776624	None	507.4601991	None	0.7	0.3	?	511.4774238	None	511.9729557	513.4719672	511.4774238	None	511.4774238	None	2	2	52	F	2021_Aug_01_2023	Social Reinforcement Learning	2021.1.4	60.14075003"
"79	0	79	0							Social	SD	Observational	images/Observational_trial.png	-0.5	80	513.9893653	None	514.9801956	516.2357466	515.7624851	516.2687729	None		518.0004962	None	516.7351489	517.7341197	513.4909322	None	513.9893653	None	0.7	0.3	?	518.0093294	None	518.5001244	520.0140041	518.0093294	None	518.0093294	None	2	2	52	F	2021_Aug_01_2023	Social Reinforcement Learning	2021.1.4	60.14075003"
"80	0	80	0							Private	PL	Private	images/Private_trial.png	0.5	81	520.5486447	None	521.5474931	522.8129688	522.2968211	522.7964288	a	0.397730846	522.7964288	None	None	None	520.0559458	None	520.5486447	None	0.7	0.3	1	523.2244565	None	523.7118758	525.2108862	523.2244565	None	523.2244565	None	2	2	52	F	2021_Aug_01_2023	Social Reinforcement Learning	2021.1.4	60.14075003"
"81	0	81	0							Private	PL	Private	images/Private_trial.png	0.5	82	525.7284581	None	526.7255718	527.9917302	527.4775001	527.9917302	a	0.584360625	527.9747212	None	528.5752833	None	525.2296239	None	525.7284581	None	0.7	0.3	1	528.5994437	None	529.074825	530.5892752	528.5994437	None	528.5994437	None	2	2	52	F	2021_Aug_01_2023	Social Reinforcement Learning	2021.1.4	60.14075003"
"82	0	82	0							Private	PL	Private	images/Private_trial.png	0.5	83	531.1048544	None	532.1038964	533.3532971	532.853627	533.3532971	a	0.624502025	533.3532971	None	534.0030581	None	530.6086774	None	531.1048544	None	0.7	0.3	1	534.0194746	None	534.5043188	None	534.0194746	None	534.0194746	None	2	2	52	F	2021_Aug_01_2023	Social Reinforcement Learning	2021.1.4	60.14075003"
"83	0	83	0							Private	PL	Private	images/Private_trial.png	0.5	84	536.5169469	None	537.5174333	538.7813781	538.2651056	538.7648215	a	1.48748643	538.7648215	None	540.2807745	None	536.0239739	None	536.5169469	None	0.7	0.3	-1	540.3053386	None	540.801371	None	540.3053386	None	540.3053386	None	2	2	52	F	2021_Aug_01_2023	Social Reinforcement Learning	2021.1.4	60.14075003"
"84	0	84	0							Private	PL	Private	images/Private_trial.png	0.5	85	542.7941876	None	543.793851	545.0574502	544.5460732	545.0574502	a	2.080889615	545.0574502	None	547.1568062	None	542.3113013	None	542.7941876	None	0.7	0.3	-1	547.1613703	None	547.6564554	None	547.1613703	None	547.1613703	None	2	2	52	F	2021_Aug_01_2023	Social Reinforcement Learning	2021.1.4	60.14075003"
"85	0	85	0							Private	PL	Private	images/Private_trial.png	0.5	86	549.6555396	None	550.6539211	551.9190934	551.421107	551.9355283	a	1.363501145	551.9024937	None	553.2988284	None	549.1715226	None	549.6555396	None	0.7	0.3	1	553.3058475	None	553.8078078	None	553.3058475	None	553.3058475	None	2	2	52	F	2021_Aug_01_2023	Social Reinforcement Learning	2021.1.4	60.14075003"
"86	0	86	0							Private	PL	Private	images/Private_trial.png	0.5	87	555.7994795	None	556.7977835	558.0467942	557.547497	558.0467942	a	0.462087536	558.0633469	None	None	None	555.3160397	None	555.7994795	None	0.7	0.3	-1	558.5540029	None	559.0453941	560.5448711	558.5540029	None	558.5540029	None	2	2	52	F	2021_Aug_01_2023	Social Reinforcement Learning	2021.1.4	60.14075003"
"87	0	87	0							Private	PL	Private	images/Private_trial.png	0.5	88	561.063256	None	562.0599498	563.3247638	562.8217416	563.3247638	a	0.58047006	563.3081463	None	563.9082347	None	560.5645108	None	561.063256	None	0.7	0.3	1	563.929847	None	564.4072301	565.9224696	563.929847	None	563.929847	None	2	2	52	F	2021_Aug_01_2023	Social Reinforcement Learning	2021.1.4	60.14075003"
"88	0	88	0							Private	PL	Private	images/Private_trial.png	0.5	89	566.4219876	None	567.4212358	568.6699305	568.1703169	568.6699305	a	0.553249538	568.6699305	None	569.2529775	None	565.9393644	None	566.4219876	None	0.7	0.3	-1	569.2605529	None	569.7535263	None	569.2605529	None	569.2605529	None	2	2	52	F	2021_Aug_01_2023	Social Reinforcement Learning	2021.1.4	60.14075003"
"89	0	89	0							Private	PL	Private	images/Private_trial.png	0.5	90	571.7502596	None	572.7496753	574.0157112	573.5037614	574.0157112	a	1.325124089	574.0157112	None	575.3633344	None	571.2675933	None	571.7502596	None	0.7	0.3	1	575.3706932	None	575.866602	None	575.3706932	None	575.3706932	None	2	2	52	F	2021_Aug_01_2023	Social Reinforcement Learning	2021.1.4	60.14075003"
"90	0	90	0							Private	PL	Private	images/Private_trial.png	0.5	91	577.8612746	None	578.8614915	580.1265279	579.6096141	580.1096963	d	0.551305836	580.1096963	None	580.6920832	None	577.3782512	None	577.8612746	None	0.7	0.3	1	580.7166742	None	581.1923902	582.6914803	580.7166742	None	580.7166742	None	2	2	52	F	2021_Aug_01_2023	Social Reinforcement Learning	2021.1.4	60.14075003"
"91	0	91	0							Private	PL	Private	images/Private_trial.png	0.5	92	583.2510359	None	584.2220613	585.4919044	584.972962	585.4919044	a	0.541177251	585.473118	None	586.0378935	None	582.7267826	None	583.2510359	None	0.7	0.3	1	586.0594429	None	586.5367775	588.0517554	586.0594429	None	586.0594429	None	2	2	52	F	2021_Aug_01_2023	Social Reinforcement Learning	2021.1.4	60.14075003"
"92	0	92	0							Private	PL	Private	images/Private_trial.png	0.5	93	588.5517416	None	589.550347	590.8158769	590.3072811	590.8158769	d	0.928302674	590.8158769	None	591.7651636	None	588.0687162	None	588.5517416	None	0.7	0.3	-1	591.7730285	None	592.2647255	None	591.7730285	None	591.7730285	None	2	2	52	F	2021_Aug_01_2023	Social Reinforcement Learning	2021.1.4	60.14075003"
"93	0	93	0							Private	PL	Private	images/Private_trial.png	0.5	94	594.2637387	None	595.262738	596.5274722	596.0118123	596.510701	a	0.549010134	596.510701	None	597.0774146	None	593.7800582	None	594.2637387	None	0.7	0.3	1	597.1035416	None	597.5996448	None	597.1035416	None	597.1035416	None	2	2	52	F	2021_Aug_01_2023	Social Reinforcement Learning	2021.1.4	60.14075003"
"94	0	94	0							Private	PL	Private	images/Private_trial.png	0.5	95	599.6227965	None	600.607497	601.8723335	601.3729731	601.8723335	a	0.558678867	601.8554561	None	602.4388445	None	599.1123918	None	599.6227965	None	0.7	0.3	1	602.4550859	None	602.9382215	604.4533934	602.4550859	None	602.4550859	None	2	2	52	F	2021_Aug_01_2023	Social Reinforcement Learning	2021.1.4	60.14075003"
"95	0	95	0							Private	PL	Private	images/Private_trial.png	0.5	96	604.9538837	None	605.9530774	607.2174465	606.7009788	607.2004755	a	0.757574908	607.2004755	None	607.9833331	None	604.4697991	None	604.9538837	None	0.7	0.3	1	607.9941815	None	608.4852251	None	607.9941815	None	607.9941815	None	2	2	52	F	2021_Aug_01_2023	Social Reinforcement Learning	2021.1.4	60.14075003"
"96	0	96	0							Private	PL	Private	images/Private_trial.png	0.5	97	610.4820413	None	611.4798025	612.7291001	612.2292956	612.7291001	a	0.92226179	612.7291001	None	613.6778835	None	609.9983285	None	610.4820413	None	0.7	0.3	1	613.6825219	None	614.1825405	None	613.6825219	None	613.6825219	None	2	2	52	F	2021_Aug_01_2023	Social Reinforcement Learning	2021.1.4	60.14075003"
"97	0	97	0							Private	PL	Private	images/Private_trial.png	0.5	98	616.1921567	None	617.1962361	618.4574878	617.9409277	618.4404552	a	1.142531838	618.4404552	None	619.6061684	None	615.6987218	None	616.1921567	None	0.7	0.3	-1	619.6277	None	620.1058093	621.6204364	619.6277	None	619.6277	None	2	2	52	F	2021_Aug_01_2023	Social Reinforcement Learning	2021.1.4	60.14075003"
"98	0	98	0							Private	PL	Private	images/Private_trial.png	0.5	99	622.1204696	None	623.1192414	624.3844825	623.8902875	624.4010663	a	2.536589403	624.3679547	None	626.9324421	None	621.6371855	None	622.1204696	None	0.7	0.3	1	626.9560755	None	627.4547378	None	626.9560755	None	626.9560755	None	2	2	52	F	2021_Aug_01_2023	Social Reinforcement Learning	2021.1.4	60.14075003"
"99	0	99	0							Private	PL	Private	images/Private_trial.png	0.5	100	629.4468733	None	630.4625106	631.7315151	631.2116024	631.7109727	a	0.824332386	631.7109727	None	632.5637182	None	628.9576881	None	629.4468733	None	0.7	0.3	-1	632.5723468	None	633.0617303	None	632.5723468	None	632.5723468	None	2	2	52	F	2021_Aug_01_2023	Social Reinforcement Learning	2021.1.4	60.14075003"
"																																																		"
