trials.thisRepN,trials.thisTrialN,trials.thisN,trials.thisIndex,textbox.started,textbox.stopped,key_resp_2.keys,key_resp_2.rt,key_resp_2.started,key_resp_2.stopped,block_type,learning_type,trial_type,image_path,x_image,trial,person.started,person.stopped,text.started,text.stopped,text_2.started,text_2.stopped,key_resp.keys,key_resp.started,key_resp.stopped,text_4.started,text_4.stopped,line.started,line.stopped,text_5.started,text_5.stopped,reward_a,reward_d,reward,image.started,image.stopped,text_3.started,text_3.stopped,line_2.started,line_2.stopped,text_6.started,text_6.stopped,key_resp.rt,session,exp_id,age,sex(M or F),date,expName,psychopyVersion,frameRate,
,,,,21.666473745019175,None,f,6.734792110772105,21.666473745019175,None,,,,,,,,,,,,,,,,,,,,,,,,,,,,,,,,,,1,2,52,F,2021_Aug_01_1522,Social Reinforcement Learning,2021.1.4,61.026522562393666,
0,0,0,0,,,,,,,Social,UD,Observational,images/Observational_trial.png,-0.5,1,28.95244132154039,None,29.938019999593962,31.203361024527112,30.68719629655243,31.191030367597705,None,32.95192201329919,None,31.686306223185966,32.68519452033797,28.450742952496512,None,28.95244132154039,None,0.3,0.7,?,32.96944476489443,None,33.466113607020816,None,32.96944476489443,None,32.96944476489443,None,,1,2,52,F,2021_Aug_01_1522,Social Reinforcement Learning,2021.1.4,61.026522562393666,
1,0,1,0,,,,,,,Social,UD,Private,images/Private_trial.png,0.5,2,35.50261175102787,None,36.49819338414818,37.74718795286026,37.24778252028045,37.74718795286026,a,37.74718795286026,None,39.303074723508324,None,35.00154310988728,None,35.50261175102787,None,0.3,0.7,-1,39.34042244707234,None,39.83221662641154,None,39.34042244707234,None,39.34042244707234,None,1.5200169718300458,1,2,52,F,2021_Aug_01_1522,Social Reinforcement Learning,2021.1.4,61.026522562393666,
2,0,2,0,,,,,,,Social,UD,Observational,images/Observational_trial.png,-0.5,3,41.82725742046023,None,42.82546937247389,44.07488902725163,43.57483924951521,44.07488902725163,None,45.839977805464876,None,44.573949176148744,45.573044090444455,41.332593119936064,None,41.82725742046023,None,0.3,0.7,?,45.862647812231444,None,46.370598423236515,None,45.862647812231444,None,45.862647812231444,None,,1,2,52,F,2021_Aug_01_1522,Social Reinforcement Learning,2021.1.4,61.026522562393666,
3,0,3,0,,,,,,,Social,UD,Private,images/Private_trial.png,0.5,4,48.35459527539206,None,49.35312920247088,50.61845363481552,50.102552807860775,50.6018622405245,a,50.6018622405245,None,51.68431057043781,None,47.85751754467492,None,48.35459527539206,None,0.3,0.7,-1,51.70090334743145,None,52.18822898709914,None,51.70090334743145,None,51.70090334743145,None,1.0537880068877712,1,2,52,F,2021_Aug_01_1522,Social Reinforcement Learning,2021.1.4,61.026522562393666,
4,0,4,0,,,,,,,Social,UD,Private,images/Private_trial.png,0.5,5,54.19867322573555,None,55.19800833737827,56.467271927103866,55.930196598375915,56.429583463061135,a,56.429583463061135,None,60.76054952254926,None,53.699169422878185,None,54.19867322573555,None,0.3,0.7,-1,60.78227849301766,None,61.26001401679241,62.77601163377403,60.78227849301766,None,60.78227849301766,None,4.312534666649299,1,2,52,F,2021_Aug_01_1522,Social Reinforcement Learning,2021.1.4,61.026522562393666,
5,0,5,0,,,,,,,Social,UD,Observational,images/Observational_trial.png,-0.5,6,63.29052026430145,None,64.28917547521996,65.55454731493955,65.03863266084227,65.55454731493955,None,67.320506018374,None,66.05671501692268,67.07067293181899,62.81179748204886,None,63.29052026430145,None,0.3,0.7,?,67.35879201281932,None,67.83567104343092,None,67.35879201281932,None,67.35879201281932,None,,1,2,52,F,2021_Aug_01_1522,Social Reinforcement Learning,2021.1.4,61.026522562393666,
6,0,6,0,,,,,,,Social,UD,Private,images/Private_trial.png,0.5,7,69.85240703020827,None,70.8495542917226,72.11501027952181,71.6135212930385,72.11501027952181,a,72.09838214449701,None,73.42933951262094,None,69.35451270756312,None,69.85240703020827,None,0.3,0.7,1,73.4588120819244,None,73.96146017860156,None,73.4588120819244,None,73.4588120819244,None,1.3019995638460387,1,2,52,F,2021_Aug_01_1522,Social Reinforcement Learning,2021.1.4,61.026522562393666,
7,0,7,0,,,,,,,Social,UD,Private,images/Private_trial.png,0.5,8,75.94457643886562,None,76.92723126738565,78.19269673663075,77.67671294679167,78.19269673663075,d,78.19269673663075,None,79.61039773993835,None,75.44556409239885,None,75.94457643886562,None,0.3,0.7,-1,79.63369036352378,None,80.10779369261581,81.60652673066943,79.63369036352378,None,79.63369036352378,None,1.3954564776504412,1,2,52,F,2021_Aug_01_1522,Social Reinforcement Learning,2021.1.4,61.026522562393666,
8,0,8,0,,,,,,,Social,UD,Observational,images/Observational_trial.png,-0.5,9,82.13957598849083,None,83.13960561811109,84.40360777988099,83.88769391589449,84.38698399055284,None,86.15187839851424,None,84.88691920047859,85.90231829939876,81.64361114578787,None,82.13957598849083,None,0.3,0.7,?,86.16279256273992,None,86.6542785941565,None,86.16279256273992,None,86.16279256273992,None,,1,2,52,F,2021_Aug_01_1522,Social Reinforcement Learning,2021.1.4,61.026522562393666,
9,0,9,0,,,,,,,Social,UD,Observational,images/Observational_trial.png,-0.5,10,88.65207889219164,None,89.65448323596502,90.91427996897255,90.39788452512585,90.89782961161109,None,92.66246525436,None,91.39736659961636,92.41286564909387,88.16674396701274,None,88.65207889219164,None,0.3,0.7,?,92.66541498040897,None,93.162975871237,None,92.66541498040897,None,92.66541498040897,None,,1,2,52,F,2021_Aug_01_1522,Social Reinforcement Learning,2021.1.4,61.026522562393666,
10,0,10,0,,,,,,,Social,UD,Observational,images/Observational_trial.png,-0.5,11,95.16028510793694,None,96.15972214541398,97.40905804716749,96.90871868940303,97.40905804716749,None,99.17362060356245,None,97.91135256388225,98.90856066485867,94.68193447354133,None,95.16028510793694,None,0.3,0.7,?,99.18847866589203,None,99.67593704618048,None,99.18847866589203,None,99.18847866589203,None,,1,2,52,F,2021_Aug_01_1522,Social Reinforcement Learning,2021.1.4,61.026522562393666,
11,0,11,0,,,,,,,Social,UD,Private,images/Private_trial.png,0.5,12,101.68725713601452,None,102.68652508719242,103.95208576627192,103.4357863223413,103.95208576627192,a,103.95208576627192,None,105.41793092903973,None,101.19358483472024,None,101.68725713601452,None,0.3,0.7,-1,105.44936023754417,None,105.9463870053296,None,105.44936023754417,None,105.44936023754417,None,1.4476326339645311,1,2,52,F,2021_Aug_01_1522,Social Reinforcement Learning,2021.1.4,61.026522562393666,
12,0,12,0,,,,,,,Social,UD,Private,images/Private_trial.png,0.5,13,107.93542721151607,None,108.93294029991375,110.19625070915208,109.6835992623528,110.19625070915208,a,110.19625070915208,None,112.11137393669051,None,107.44875816395506,None,107.93542721151607,None,0.3,0.7,-1,112.11987190530635,None,112.61120228251093,None,112.11987190530635,None,112.11987190530635,None,1.8836208326974884,1,2,52,F,2021_Aug_01_1522,Social Reinforcement Learning,2021.1.4,61.026522562393666,
13,0,13,0,,,,,,,Social,UD,Private,images/Private_trial.png,0.5,14,114.60916534584248,None,115.60782569259754,116.85701581669855,116.35734134729137,116.85701581669855,a,116.85701581669855,None,118.49172129050422,None,114.12881016984466,None,114.60916534584248,None,0.3,0.7,-1,118.51671978927334,None,118.988159614295,120.50301115811453,118.51671978927334,None,118.51671978927334,None,1.6164917598071042,1,2,52,F,2021_Aug_01_1522,Social Reinforcement Learning,2021.1.4,61.026522562393666,
14,0,14,0,,,,,,,Social,UD,Private,images/Private_trial.png,0.5,15,121.01727919623954,None,122.01859554086695,123.26789944266784,122.76968986098655,123.26789944266784,a,123.26789944266784,None,124.58435884693463,None,120.52993498870637,None,121.01727919623954,None,0.3,0.7,1,124.61627368591144,None,125.09893602060038,None,124.61627368591144,None,124.61627368591144,None,1.3005263798113447,1,2,52,F,2021_Aug_01_1522,Social Reinforcement Learning,2021.1.4,61.026522562393666,
15,0,15,0,,,,,,,Social,UD,Observational,images/Observational_trial.png,-0.5,16,127.136521768698,None,128.12997599606751,129.3939287751855,128.88165974782896,129.3939287751855,None,131.1494539066247,None,129.8851437944686,130.89500768791186,126.63393727689981,None,127.136521768698,None,0.3,0.7,?,131.17227364165592,None,131.65951157768723,133.15786654193653,131.17227364165592,None,131.17227364165592,None,,1,2,52,F,2021_Aug_01_1522,Social Reinforcement Learning,2021.1.4,61.026522562393666,
16,0,16,0,,,,,,,Social,UD,Private,images/Private_trial.png,0.5,17,133.6782343283121,None,134.6739731958951,135.92270386355813,135.42292509795516,135.92270386355813,d,135.92270386355813,None,137.5043901200028,None,133.1775801066251,None,133.6782343283121,None,0.3,0.7,1,137.51454853173345,None,138.00491969982977,None,137.51454853173345,None,137.51454853173345,None,1.5493396153324284,1,2,52,F,2021_Aug_01_1522,Social Reinforcement Learning,2021.1.4,61.026522562393666,
17,0,17,0,,,,,,,Social,UD,Observational,images/Observational_trial.png,-0.5,18,140.03573172487086,None,141.03391523245955,142.28286397404736,141.7998666272615,142.29962801019428,None,144.05519936381316,None,142.78240175219253,143.78199523399235,139.5381392291456,None,140.03573172487086,None,0.3,0.7,?,144.07491352106445,None,144.5665480955795,None,144.07491352106445,None,144.07491352106445,None,,1,2,52,F,2021_Aug_01_1522,Social Reinforcement Learning,2021.1.4,61.026522562393666,
18,0,18,0,,,,,,,Social,UD,Observational,images/Observational_trial.png,-0.5,19,146.56224508662126,None,147.56189506221563,148.82675332209328,148.3104151621519,148.8101658783853,None,150.57514048384328,None,149.3095207431179,150.30856666978798,146.0791983571835,None,146.56224508662126,None,0.3,0.7,?,150.57938127062516,None,151.07459747194662,None,150.57938127062516,None,150.57938127062516,None,,1,2,52,F,2021_Aug_01_1522,Social Reinforcement Learning,2021.1.4,61.026522562393666,
19,0,19,0,,,,,,,Social,UD,Observational,images/Observational_trial.png,-0.5,20,153.07323451005504,None,154.07181465931353,155.33731607918162,154.82211293067667,155.33731607918162,None,157.0861784998182,None,155.83468022939633,156.83618462327286,152.58984368210076,None,153.07323451005504,None,0.3,0.7,?,157.0976674784033,None,157.58785296764108,None,157.0976674784033,None,157.0976674784033,None,,1,2,52,F,2021_Aug_01_1522,Social Reinforcement Learning,2021.1.4,61.026522562393666,
20,0,20,0,,,,,,,Social,UD,Private,images/Private_trial.png,0.5,21,159.61778874645825,None,160.61575339004048,161.88180434031528,161.36501739060623,161.8642004035937,d,161.8642004035937,None,162.69841228768055,None,159.13265095691895,None,159.61778874645825,None,0.3,0.7,1,162.73907773703104,None,163.21479094141978,None,162.73907773703104,None,162.73907773703104,None,0.8070895351411309,1,2,52,F,2021_Aug_01_1522,Social Reinforcement Learning,2021.1.4,61.026522562393666,
21,0,21,0,,,,,,,Social,UD,Private,images/Private_trial.png,0.5,22,165.22782836321858,None,166.22748584495275,167.49265738853137,166.99289719079388,167.49265738853137,a,167.47601819181,None,168.9566493182123,None,164.73723280022386,None,165.22782836321858,None,0.3,0.7,-1,168.99191743848496,None,169.4585975635855,170.97268110801815,168.99191743848496,None,168.99191743848496,None,1.4575822557380889,1,2,52,F,2021_Aug_01_1522,Social Reinforcement Learning,2021.1.4,61.026522562393666,
22,0,22,0,,,,,,,Social,UD,Private,images/Private_trial.png,0.5,23,171.47337760130176,None,172.4717815531767,173.7370408003626,173.22097325749928,173.7200673816842,d,173.7200673816842,None,174.76948107102945,None,170.98940366270836,None,171.47337760130176,None,0.3,0.7,1,174.77930763116456,None,175.26965588572784,None,174.77930763116456,None,174.77930763116456,None,1.0221036862640176,1,2,52,F,2021_Aug_01_1522,Social Reinforcement Learning,2021.1.4,61.026522562393666,
23,0,23,0,,,,,,,Social,UD,Observational,images/Observational_trial.png,-0.5,24,177.28510120685678,None,178.28413133107824,179.54815245579812,179.032232270838,179.5317246169143,None,181.29712944424537,None,180.03099849403952,181.0299918775563,176.79269942306564,None,177.28510120685678,None,0.3,0.7,?,181.3411074835749,None,181.82909643134917,None,181.3411074835749,None,181.3411074835749,None,,1,2,52,F,2021_Aug_01_1522,Social Reinforcement Learning,2021.1.4,61.026522562393666,
24,0,24,0,,,,,,,Social,UD,Observational,images/Observational_trial.png,-0.5,25,183.81186859309673,None,184.81420024557156,186.07531885406934,185.57552389096236,186.07531885406934,None,187.84069405180927,None,186.57475075576804,187.57388241076842,183.32952941863914,None,183.81186859309673,None,0.3,0.7,?,187.85532850938034,None,188.3249601382995,189.82340873213252,187.85532850938034,None,187.85532850938034,None,,1,2,52,F,2021_Aug_01_1522,Social Reinforcement Learning,2021.1.4,61.026522562393666,
25,0,25,0,,,,,,,Social,UD,Observational,images/Observational_trial.png,-0.5,26,190.37174647170468,None,191.3705664232548,192.6357905100158,192.1196700289147,192.61919437497272,None,194.38438547407569,None,193.11865946181933,194.11783694394398,189.88288088268018,None,190.37174647170468,None,0.3,0.7,?,194.39787385848467,None,194.88358843766036,None,194.39787385848467,None,194.39787385848467,None,,1,2,52,F,2021_Aug_01_1522,Social Reinforcement Learning,2021.1.4,61.026522562393666,
26,0,26,0,,,,,,,Social,UD,Observational,images/Observational_trial.png,-0.5,27,196.89951178312185,None,197.8982586482889,199.16190406962414,198.64696008141618,199.16190406962414,None,200.91222189654073,None,199.64566546515562,200.6449618607876,196.40083760922425,None,196.89951178312185,None,0.3,0.7,?,200.93572785326978,None,201.4109428851807,202.92605200904654,200.93572785326978,None,200.93572785326978,None,,1,2,52,F,2021_Aug_01_1522,Social Reinforcement Learning,2021.1.4,61.026522562393666,
27,0,27,0,,,,,,,Social,UD,Private,images/Private_trial.png,0.5,28,203.4388606902794,None,204.44179086081567,205.69062029384077,205.17798978529754,205.69062029384077,d,205.69062029384077,None,207.8388305471075,None,202.95063510074397,None,203.4388606902794,None,0.3,0.7,-1,207.88293658633484,None,208.35869245734648,None,207.88293658633484,None,207.88293658633484,None,2.119062029378256,1,2,52,F,2021_Aug_01_1522,Social Reinforcement Learning,2021.1.4,61.026522562393666,
28,0,28,0,,,,,,,Social,UD,Observational,images/Observational_trial.png,-0.5,29,210.38616305292817,None,211.38503396738088,212.63365046231775,212.13612196652684,212.65027899236884,None,214.39862190727436,None,213.13536423872574,214.1491807216371,209.89536758884788,None,210.38616305292817,None,0.3,0.7,?,214.4099003181036,None,214.89806664845673,216.397347241611,214.4099003181036,None,214.4099003181036,None,,1,2,52,F,2021_Aug_01_1522,Social Reinforcement Learning,2021.1.4,61.026522562393666,
29,0,29,0,,,,,,,Social,UD,Private,images/Private_trial.png,0.5,30,216.91358150038286,None,217.91259029129287,219.17806958770962,218.66169350186829,219.1613825885579,a,219.1613825885579,None,220.77617064600636,None,216.42187265431858,None,216.91358150038286,None,0.3,0.7,-1,220.7869678720308,None,221.2759025968262,None,220.7869678720308,None,220.7869678720308,None,1.5933241731545422,1,2,52,F,2021_Aug_01_1522,Social Reinforcement Learning,2021.1.4,61.026522562393666,
30,0,30,0,,,,,,,Social,UD,Observational,images/Observational_trial.png,-0.5,31,223.29857240608544,None,224.318709476589,225.57172458531568,225.05550968454918,225.5547077098745,None,227.32243312795472,None,226.06413782588788,227.09693938019336,222.8090134842496,None,223.29857240608544,None,0.3,0.7,?,227.34603785004583,None,227.8362849688565,None,227.34603785004583,None,227.34603785004583,None,,1,2,52,F,2021_Aug_01_1522,Social Reinforcement Learning,2021.1.4,61.026522562393666,
31,0,31,0,,,,,,,Social,UD,Private,images/Private_trial.png,0.5,32,229.8704538307502,None,230.85049532802077,232.11352524365066,231.5994156251545,232.11352524365066,a,232.11352524365066,None,233.31443747996528,None,229.36135556633235,None,229.8704538307502,None,0.3,0.7,1,233.34521809761645,None,233.83058067708043,None,233.34521809761645,None,233.34521809761645,None,1.1692936934123281,1,2,52,F,2021_Aug_01_1522,Social Reinforcement Learning,2021.1.4,61.026522562393666,
32,0,32,0,,,,,,,Social,UD,Observational,images/Observational_trial.png,-0.5,33,235.8307118374796,None,236.82781524717575,238.0933194324607,237.57760942017194,238.0933194324607,None,239.84159123628925,None,238.57651628521853,239.59255972935352,235.33380161281093,None,235.8307118374796,None,0.3,0.7,?,239.8730193595984,None,240.34119874276803,None,239.8730193595984,None,239.8730193595984,None,,1,2,52,F,2021_Aug_01_1522,Social Reinforcement Learning,2021.1.4,61.026522562393666,
33,0,33,0,,,,,,,Social,UD,Observational,images/Observational_trial.png,-0.5,34,242.33978521302924,None,243.33886392979184,244.6038861401612,244.08751914073946,244.5874468444963,None,246.35222668467614,None,245.0879458070558,246.10293364708195,241.85645798998303,None,242.33978521302924,None,0.3,0.7,?,246.36010756733594,None,246.85189147506026,None,246.36010756733594,None,246.36010756733594,None,,1,2,52,F,2021_Aug_01_1522,Social Reinforcement Learning,2021.1.4,61.026522562393666,
34,0,34,0,,,,,,,Social,UD,Private,images/Private_trial.png,0.5,35,248.88361767222523,None,249.8841798446083,251.14943711651722,250.6464603287459,251.14943711651722,a,251.132905376493,None,252.06845841506438,None,248.39259662808036,None,248.88361767222523,None,0.3,0.7,-1,252.1092838642653,None,252.59650994846015,None,252.1092838642653,None,252.1092838642653,None,0.9124986370443366,1,2,52,F,2021_Aug_01_1522,Social Reinforcement Learning,2021.1.4,61.026522562393666,
35,0,35,0,,,,,,,Social,UD,Private,images/Private_trial.png,0.5,36,254.59564318371122,None,255.5935082717915,256.87404098841944,256.34330481517827,256.84253997626365,a,256.84253997626365,None,258.9073120732413,None,254.09712979980395,None,254.59564318371122,None,0.3,0.7,-1,258.92134050661116,None,259.39065055554966,260.90520501317224,258.92134050661116,None,258.92134050661116,None,2.0480489496840164,1,2,52,F,2021_Aug_01_1522,Social Reinforcement Learning,2021.1.4,61.026522562393666,
36,0,36,0,,,,,,,Social,UD,Observational,images/Observational_trial.png,-0.5,37,261.4217094939668,None,262.42129942020983,263.6861331862747,263.17436470175744,263.6861331862747,None,265.4514692729193,None,264.18558405089425,265.1870200991689,260.9285725008813,None,261.4217094939668,None,0.3,0.7,?,265.48900702103856,None,265.97014204828884,None,265.48900702103856,None,265.48900702103856,None,,1,2,52,F,2021_Aug_01_1522,Social Reinforcement Learning,2021.1.4,61.026522562393666,
37,0,37,0,,,,,,,Social,UD,Private,images/Private_trial.png,0.5,38,267.986033788824,None,268.9838893954584,270.2466498792055,269.73575448041083,270.2466498792055,d,270.230013447901,None,270.81433318374036,None,267.48530687580933,None,267.986033788824,None,0.3,0.7,1,270.8518341911549,None,271.3477642684302,None,270.8518341911549,None,270.8518341911549,None,0.5690930811979342,1,2,52,F,2021_Aug_01_1522,Social Reinforcement Learning,2021.1.4,61.026522562393666,
38,0,38,0,,,,,,,Social,UD,Private,images/Private_trial.png,0.5,39,273.3452939494164,None,274.344928122533,275.60821996387676,275.093941654166,275.60821996387676,d,275.5915795819601,None,276.67372292448124,None,272.8521731538349,None,273.3452939494164,None,0.3,0.7,1,276.6769337861333,None,277.17331462851143,None,276.6769337861333,None,276.6769337861333,None,1.0578105222375598,1,2,52,F,2021_Aug_01_1522,Social Reinforcement Learning,2021.1.4,61.026522562393666,
39,0,39,0,,,,,,,Social,UD,Observational,images/Observational_trial.png,-0.5,40,279.19052587417536,None,280.18709002502146,281.4374487407913,280.941325873544,281.4530670988315,None,283.21111272210544,None,281.9355046435667,282.93542089054245,278.6935781186621,None,279.19052587417536,None,0.3,0.7,?,283.2660193453776,None,283.74434627607116,None,283.2660193453776,None,283.2660193453776,None,,1,2,52,F,2021_Aug_01_1522,Social Reinforcement Learning,2021.1.4,61.026522562393666,
40,0,40,0,,,,,,,Social,SD,Observational,images/Observational_trial.png,-0.5,41,285.73322845771327,None,286.7477161499555,288.00196622067597,287.49696355796186,288.00196622067597,None,289.76375860641417,None,288.49680039761006,289.514131346863,285.2495516053168,None,285.73322845771327,None,0.3,0.7,?,289.78824787103804,None,290.28152985163615,None,289.78824787103804,None,289.78824787103804,None,,1,2,52,F,2021_Aug_01_1522,Social Reinforcement Learning,2021.1.4,61.026522562393666,
41,0,41,0,,,,,,,Social,SD,Observational,images/Observational_trial.png,-0.5,42,292.31037763130735,None,293.30833595391596,294.5575928433973,294.0585200525238,294.5575928433973,None,296.3222964367218,None,295.0571100783418,296.05589170893654,291.8058948694379,None,292.31037763130735,None,0.3,0.7,?,296.32721198839135,None,296.82176132602035,None,296.32721198839135,None,296.32721198839135,None,,1,2,52,F,2021_Aug_01_1522,Social Reinforcement Learning,2021.1.4,61.026522562393666,
42,0,42,0,,,,,,,Social,SD,Private,images/Private_trial.png,0.5,43,298.86997225089,None,299.87343614938436,301.1344224123168,300.6181115116342,301.11767654900905,d,301.11767654900905,None,302.9830591738777,None,298.37743970178417,None,298.86997225089,None,0.3,0.7,-1,303.01039090537233,None,303.5014704185887,None,303.01039090537233,None,303.01039090537233,None,1.847639429033734,1,2,52,F,2021_Aug_01_1522,Social Reinforcement Learning,2021.1.4,61.026522562393666,
43,0,43,0,,,,,,,Social,SD,Observational,images/Observational_trial.png,-0.5,44,305.5134324832179,None,306.5343426889158,307.79448944632895,307.28029923533904,307.79448944632895,None,309.5415168067178,None,308.28089143239777,309.2953621369961,305.03265854209894,None,305.5134324832179,None,0.3,0.7,?,309.56801535366685,None,310.0596305701765,None,309.56801535366685,None,309.56801535366685,None,,1,2,52,F,2021_Aug_01_1522,Social Reinforcement Learning,2021.1.4,61.026522562393666,
44,0,44,0,,,,,,,Social,SD,Observational,images/Observational_trial.png,-0.5,45,312.0633192586247,None,313.0568244489259,314.3258474462491,313.797371024295,314.30867254623445,None,316.0703815740329,None,314.79361280504963,315.80379788341816,311.55934494076064,None,312.0633192586247,None,0.3,0.7,?,316.0749419654894,None,316.57041061104974,None,316.0749419654894,None,316.0749419654894,None,,1,2,52,F,2021_Aug_01_1522,Social Reinforcement Learning,2021.1.4,61.026522562393666,
45,0,45,0,,,,,,,Social,SD,Observational,images/Observational_trial.png,-0.5,46,318.5685802914959,None,319.56700952732353,320.8162387624907,320.31639757717494,320.8162387624907,None,322.5810861581616,None,321.31542454089504,322.3144641465915,318.0850507970026,None,318.5685802914959,None,0.3,0.7,?,322.5854474386724,None,323.08134591105045,None,322.5854474386724,None,322.5854474386724,None,,1,2,52,F,2021_Aug_01_1522,Social Reinforcement Learning,2021.1.4,61.026522562393666,
46,0,46,0,,,,,,,Social,SD,Private,images/Private_trial.png,0.5,47,325.0818334168289,None,326.1038166093349,327.3597737404343,326.84364219763665,327.34340042003896,a,327.3267699146527,None,329.40806545537487,None,324.603773942712,None,325.0818334168289,None,0.3,0.7,-1,329.42882296981406,None,329.91666376954527,None,329.42882296981406,None,329.42882296981406,None,2.065591256832704,1,2,52,F,2021_Aug_01_1522,Social Reinforcement Learning,2021.1.4,61.026522562393666,
47,0,47,0,,,,,,,Social,SD,Private,images/Private_trial.png,0.5,48,331.92270267836284,None,332.92262287595076,334.1871405928978,333.67121250671335,334.17035838391166,d,334.17035838391166,None,335.23564524592655,None,331.43805674029863,None,331.92270267836284,None,0.3,0.7,-1,335.2429145735223,None,335.7419075619546,None,335.2429145735223,None,335.2429145735223,None,1.047580406855559,1,2,52,F,2021_Aug_01_1522,Social Reinforcement Learning,2021.1.4,61.026522562393666,
48,0,48,0,,,,,,,Social,SD,Observational,images/Observational_trial.png,-0.5,49,337.7668869002373,None,338.7663543574454,340.0313797283161,339.51554843215854,340.0147583093494,None,341.7799008158821,None,340.5365297489334,341.54641142013134,337.27146368674585,None,337.7668869002373,None,0.3,0.7,?,341.79764282656834,None,342.28676481047296,None,341.79764282656834,None,341.79764282656834,None,,1,2,52,F,2021_Aug_01_1522,Social Reinforcement Learning,2021.1.4,61.026522562393666,
49,0,49,0,,,,,,,Social,SD,Private,images/Private_trial.png,0.5,50,344.29652124718996,None,345.29281122543034,346.5419985841145,346.0447256930638,346.558959755901,d,346.5419985841145,None,348.30729121399634,None,343.7980418385996,None,344.29652124718996,None,0.3,0.7,1,348.3360672900162,None,348.8376542517508,None,348.3360672900162,None,348.3360672900162,None,1.733989345986629,1,2,52,F,2021_Aug_01_1522,Social Reinforcement Learning,2021.1.4,61.026522562393666,
50,0,50,0,,,,,,,Social,SD,Observational,images/Observational_trial.png,-0.5,51,350.8411568662559,None,351.8367752400809,353.0860510925122,352.586242697289,353.0860510925122,None,354.85488347268836,None,353.6040248067002,354.61646094502066,350.34408190098475,None,350.8411568662559,None,0.3,0.7,?,354.91036925601657,None,355.3984668456542,None,354.91036925601657,None,354.91036925601657,None,,1,2,52,F,2021_Aug_01_1522,Social Reinforcement Learning,2021.1.4,61.026522562393666,
51,0,51,0,,,,,,,Social,SD,Observational,images/Observational_trial.png,-0.5,52,357.36543062486453,None,358.3644690453657,359.61324237968074,359.1305354030337,359.62997362570604,None,361.37812454075026,None,360.1126324048382,361.12821481228457,356.88217688322766,None,357.36543062486453,None,0.3,0.7,?,361.38418458533124,None,361.8777652324061,None,361.38418458533124,None,361.38418458533124,None,,1,2,52,F,2021_Aug_01_1522,Social Reinforcement Learning,2021.1.4,61.026522562393666,
52,0,52,0,,,,,,,Social,SD,Observational,images/Observational_trial.png,-0.5,53,363.877645528788,None,364.87675229492015,366.13758606414194,365.6325111051847,366.13758606414194,None,367.8919070483738,None,366.6232417791907,367.6230715076963,363.3931418128486,None,363.877645528788,None,0.3,0.7,?,367.9159818935441,None,368.40265449669096,369.9183222373831,367.9159818935441,None,367.9159818935441,None,,1,2,52,F,2021_Aug_01_1522,Social Reinforcement Learning,2021.1.4,61.026522562393666,
53,0,53,0,,,,,,,Social,SD,Private,images/Private_trial.png,0.5,54,370.4369312103372,None,371.43532726098783,372.7153325706022,372.1846671133535,372.6902619731263,d,372.6902619731263,None,373.81852834091694,None,369.94615865984815,None,370.4369312103372,None,0.3,0.7,-1,373.83474620466586,None,374.32244991807966,None,373.83474620466586,None,373.83474620466586,None,1.1001678220927715,1,2,52,F,2021_Aug_01_1522,Social Reinforcement Learning,2021.1.4,61.026522562393666,
54,0,54,0,,,,,,,Social,SD,Private,images/Private_trial.png,0.5,55,376.31382296193624,None,377.31297674038797,378.56245091362507,378.06287639477523,378.56245091362507,d,378.56245091362507,None,379.1782127974642,None,375.831016034761,None,376.31382296193624,None,0.3,0.7,1,379.18852172759944,None,379.6775220325799,None,379.18852172759944,None,379.18852172759944,None,0.5844870443688706,1,2,52,F,2021_Aug_01_1522,Social Reinforcement Learning,2021.1.4,61.026522562393666,
55,0,55,0,,,,,,,Social,SD,Private,images/Private_trial.png,0.5,56,381.6755573921546,None,382.6755388242891,383.9410200959828,383.4261519596039,383.9410200959828,d,383.9238147762662,None,385.0060327853629,None,381.1929598475399,None,381.6755573921546,None,0.3,0.7,1,385.0137437916128,None,385.5053321439482,None,385.0137437916128,None,385.0137437916128,None,1.053669488435844,1,2,52,F,2021_Aug_01_1522,Social Reinforcement Learning,2021.1.4,61.026522562393666,
56,0,56,0,,,,,,,Social,SD,Observational,images/Observational_trial.png,-0.5,57,387.54299295370583,None,388.5197787498182,389.7847476268653,389.26839722003206,389.7690996392339,None,391.5334054057224,None,390.267437220813,391.281782295875,387.0255320292199,None,387.54299295370583,None,0.3,0.7,?,391.5521856377891,None,392.03810130324564,None,391.5521856377891,None,391.5521856377891,None,,1,2,52,F,2021_Aug_01_1522,Social Reinforcement Learning,2021.1.4,61.026522562393666,
57,0,57,0,,,,,,,Social,SD,Observational,images/Observational_trial.png,-0.5,58,394.0482227767352,None,395.0466283088608,396.3106664212246,395.79569596389774,396.3106664212246,None,398.06065555701787,None,396.79489438427845,397.7951574951876,393.5614759020391,None,394.0482227767352,None,0.3,0.7,?,398.0654186149768,None,398.5600276069017,400.06317585133365,398.0654186149768,None,398.0654186149768,None,,1,2,52,F,2021_Aug_01_1522,Social Reinforcement Learning,2021.1.4,61.026522562393666,
58,0,58,0,,,,,,,Social,SD,Observational,images/Observational_trial.png,-0.5,59,400.57501663209405,None,401.5742466574011,402.8397611142718,402.32278453509207,402.8226352018828,None,404.587787584975,None,403.33927795416093,404.3400368671282,400.08763963446836,None,400.57501663209405,None,0.3,0.7,?,404.59826639149105,None,405.08726116563776,None,404.59826639149105,None,404.59826639149105,None,,1,2,52,F,2021_Aug_01_1522,Social Reinforcement Learning,2021.1.4,61.026522562393666,
59,0,59,0,,,,,,,Social,SD,Private,images/Private_trial.png,0.5,60,407.10227824017056,None,408.10127320393804,409.35193493182305,408.8604919620848,409.3699106213171,a,409.35193493182305,None,412.7144569169817,None,406.6115392699139,None,407.10227824017056,None,0.3,0.7,-1,412.7378913676075,None,413.2294615471037,None,412.7378913676075,None,412.7378913676075,None,3.3417933101882227,1,2,52,F,2021_Aug_01_1522,Social Reinforcement Learning,2021.1.4,61.026522562393666,
60,0,60,0,,,,,,,Social,SD,Observational,images/Observational_trial.png,-0.5,61,415.22757354858913,None,416.2290329054522,417.4969777801889,416.976034389314,417.4969777801889,None,419.24084504428026,None,417.9750344888598,418.97414362538257,414.7330712232506,None,415.22757354858913,None,0.3,0.7,?,419.2698494658107,None,419.75941826417693,None,419.2698494658107,None,419.2698494658107,None,,1,2,52,F,2021_Aug_01_1522,Social Reinforcement Learning,2021.1.4,61.026522562393666,
61,0,61,0,,,,,,,Social,SD,Observational,images/Observational_trial.png,-0.5,62,421.7714830447512,None,422.7721416121349,424.03622120595537,423.5365040699253,424.03622120595537,None,425.7846146887081,None,424.5214656620519,425.5347804169869,421.27668363324483,None,421.7714830447512,None,0.3,0.7,?,425.7890000679472,None,426.2840057015419,None,425.7890000679472,None,425.7890000679472,None,,1,2,52,F,2021_Aug_01_1522,Social Reinforcement Learning,2021.1.4,61.026522562393666,
62,0,62,0,,,,,,,Social,SD,Observational,images/Observational_trial.png,-0.5,63,428.29883828241145,None,429.2979663818551,430.5466204076074,430.0473378391471,430.5466204076074,None,432.32642561862883,None,431.0644783688185,432.0786788514233,427.8051975860144,None,428.29883828241145,None,0.3,0.7,?,432.33908832469024,None,432.8278551483818,None,432.33908832469024,None,432.33908832469024,None,,1,2,52,F,2021_Aug_01_1522,Social Reinforcement Learning,2021.1.4,61.026522562393666,
63,0,63,0,,,,,,,Social,SD,Private,images/Private_trial.png,0.5,64,434.890766703611,None,435.87502153086825,437.12386716139736,436.6244040498568,437.12386716139736,d,437.12386716139736,None,438.98883102117395,None,434.3814570813265,None,434.890766703611,None,0.3,0.7,1,439.0136821620399,None,439.5048932307109,None,439.0136821620399,None,439.0136821620399,None,1.8366705488006119,1,2,52,F,2021_Aug_01_1522,Social Reinforcement Learning,2021.1.4,61.026522562393666,
64,0,64,0,,,,,,,Social,SD,Private,images/Private_trial.png,0.5,65,441.4866026772652,None,442.4863194182399,443.7510239992116,443.2346550244838,443.7343867777672,a,443.7343867777672,None,445.28291355424733,None,441.00350933056325,None,441.4866026772652,None,0.3,0.7,-1,445.2961542351404,None,445.7660280367418,447.28099730884423,445.2961542351404,None,445.2961542351404,None,1.5329836776363663,1,2,52,F,2021_Aug_01_1522,Social Reinforcement Learning,2021.1.4,61.026522562393666,
65,0,65,0,,,,,,,Social,SD,Private,images/Private_trial.png,0.5,66,447.78155513555976,None,448.77942061875365,450.02860047123977,449.52871424893965,450.02860047123977,d,450.02860047123977,None,450.74492918920294,None,447.29793556706863,None,447.78155513555976,None,0.3,0.7,1,450.7648815684952,None,451.2606283373025,None,450.7648815684952,None,450.7648815684952,None,0.6908581208263058,1,2,52,F,2021_Aug_01_1522,Social Reinforcement Learning,2021.1.4,61.026522562393666,
66,0,66,0,,,,,,,Social,SD,Observational,images/Observational_trial.png,-0.5,67,453.2839270843251,None,454.2744752399449,455.5399154252664,455.0239454625698,455.5233279815875,None,457.28850011774045,None,456.04598988959333,457.0555958079349,452.7821303450037,None,453.2839270843251,None,0.3,0.7,?,457.3007780339685,None,457.7913937450794,None,457.3007780339685,None,457.3007780339685,None,,1,2,52,F,2021_Aug_01_1522,Social Reinforcement Learning,2021.1.4,61.026522562393666,
67,0,67,0,,,,,,,Social,SD,Private,images/Private_trial.png,0.5,68,459.8245627065189,None,460.8349674390338,462.10061621680507,461.5846505998052,462.08407499530585,d,462.08407499530585,None,463.7990371958207,None,459.3388078310818,None,459.8245627065189,None,0.3,0.7,1,463.8196623647236,None,464.29848549255985,None,463.8196623647236,None,463.8196623647236,None,1.6969795974437147,1,2,52,F,2021_Aug_01_1522,Social Reinforcement Learning,2021.1.4,61.026522562393666,
68,0,68,0,,,,,,,Social,SD,Observational,images/Observational_trial.png,-0.5,69,466.3365069933934,None,467.3289056166832,468.5779207285668,468.07841020965134,468.5779207285668,None,470.3455778010451,None,469.0778946545033,470.0767450257845,465.8417008658289,None,466.3365069933934,None,0.3,0.7,?,470.3656842542696,None,470.84501148050185,None,470.3656842542696,None,470.3656842542696,None,,1,2,52,F,2021_Aug_01_1522,Social Reinforcement Learning,2021.1.4,61.026522562393666,
69,0,69,0,,,,,,,Social,SD,Private,images/Private_trial.png,0.5,70,472.85822193918284,None,473.8714252867794,475.12177531121415,474.6109229740978,475.12177531121415,d,475.1050713243894,None,475.9212976424518,None,472.3722956070851,None,472.85822193918284,None,0.3,0.7,1,475.95244448204176,None,476.4368119017745,477.93853911029873,475.95244448204176,None,475.95244448204176,None,0.7895187835965771,1,2,52,F,2021_Aug_01_1522,Social Reinforcement Learning,2021.1.4,61.026522562393666,
70,0,70,0,,,,,,,Social,SD,Observational,images/Observational_trial.png,-0.5,71,478.46894461713964,None,479.47087409711094,480.7331300874066,480.21679113735445,480.7164699524292,None,482.4815599158086,None,481.22862283172435,482.2318378415075,477.97474806933315,None,478.46894461713964,None,0.3,0.7,?,482.4975043970335,None,482.98109315073816,None,482.4975043970335,None,482.4975043970335,None,,1,2,52,F,2021_Aug_01_1522,Social Reinforcement Learning,2021.1.4,61.026522562393666,
71,0,71,0,,,,,,,Social,SD,Observational,images/Observational_trial.png,-0.5,72,484.9958502748923,None,486.01181036105845,487.2772438303218,486.7499924938311,487.2603861646494,None,489.0123853729368,None,487.7432748695137,488.75977658489137,484.51062952246866,None,484.9958502748923,None,0.3,0.7,?,489.04733981445315,None,489.5339349855494,None,489.04733981445315,None,489.04733981445315,None,,1,2,52,F,2021_Aug_01_1522,Social Reinforcement Learning,2021.1.4,61.026522562393666,
72,0,72,0,,,,,,,Social,SD,Private,images/Private_trial.png,0.5,73,491.58767321470077,None,492.5722326342948,493.822448337829,493.3226873499807,493.822448337829,d,493.822448337829,None,494.5037007378327,None,491.07797169149853,None,491.58767321470077,None,0.3,0.7,1,494.51618645637063,None,495.003454021964,None,494.51618645637063,None,494.51618645637063,None,0.6650934003992006,1,2,52,F,2021_Aug_01_1522,Social Reinforcement Learning,2021.1.4,61.026522562393666,
73,0,73,0,,,,,,,Social,SD,Private,images/Private_trial.png,0.5,74,497.00236444259644,None,498.0169876409054,499.28222594986437,498.7662840365374,499.2655112963985,d,499.2655112963985,None,500.26505361775924,None,496.51981825596886,None,497.00236444259644,None,0.3,0.7,1,500.27756185477483,None,500.76441776638967,None,500.27756185477483,None,500.27756185477483,None,0.9741515265777707,1,2,52,F,2021_Aug_01_1522,Social Reinforcement Learning,2021.1.4,61.026522562393666,
74,0,74,0,,,,,,,Social,SD,Observational,images/Observational_trial.png,-0.5,75,502.7811810123967,None,503.778105064237,505.04350100268493,504.52754447207553,505.0269609663519,None,506.7919652014301,None,505.5375343901105,506.5421415963501,502.2893895985035,None,502.7811810123967,None,0.3,0.7,?,506.8150069609983,None,507.2927440649946,None,506.8150069609983,None,506.8150069609983,None,,1,2,52,F,2021_Aug_01_1522,Social Reinforcement Learning,2021.1.4,61.026522562393666,
75,0,75,0,,,,,,,Social,SD,Private,images/Private_trial.png,0.5,76,509.3243758424651,None,510.3052746230096,511.554318969429,511.05805229980615,511.570715598471,d,511.554318969429,None,512.20414344366,None,508.812773678801,None,509.3243758424651,None,0.3,0.7,1,512.2309525088931,None,512.7201017520274,514.2181517288845,512.2309525088931,None,512.2309525088931,None,0.6246110620559193,1,2,52,F,2021_Aug_01_1522,Social Reinforcement Learning,2021.1.4,61.026522562393666,
76,0,76,0,,,,,,,Social,SD,Private,images/Private_trial.png,0.5,77,514.7186878272332,None,515.7191919256002,516.9825442113215,516.4663273352489,516.9658449652779,d,516.9658449652779,None,517.8668664755736,None,514.2350338883698,None,514.7186878272332,None,0.3,0.7,-1,517.9017237319786,None,518.3819129822077,None,517.9017237319786,None,517.9017237319786,None,0.8751052838633768,1,2,52,F,2021_Aug_01_1522,Social Reinforcement Learning,2021.1.4,61.026522562393666,
77,0,77,0,,,,,,,Social,SD,Private,images/Private_trial.png,0.5,78,520.3799333294446,None,521.3784629108559,522.6440342565766,522.1343734246911,522.6440342565766,d,522.6440342565766,None,523.2270728082425,None,519.8971153405728,None,520.3799333294446,None,0.3,0.7,1,523.2469394592044,None,523.7391614900553,525.2413627722708,523.2469394592044,None,523.2469394592044,None,0.5642930849862751,1,2,52,F,2021_Aug_01_1522,Social Reinforcement Learning,2021.1.4,61.026522562393666,
78,0,78,0,,,,,,,Social,SD,Private,images/Private_trial.png,0.5,79,525.7581437960325,None,526.7566097725648,528.0229036856035,527.5146856180218,528.0229036856035,d,528.0059772792447,None,529.0713660670939,None,525.2604039424041,None,525.7581437960325,None,0.3,0.7,1,529.0769623095694,None,529.5730966336268,None,529.0769623095694,None,529.0769623095694,None,1.0377224393305369,1,2,52,F,2021_Aug_01_1522,Social Reinforcement Learning,2021.1.4,61.026522562393666,
79,0,79,0,,,,,,,Social,SD,Private,images/Private_trial.png,0.5,80,531.5689927356143,None,532.5681433535647,533.8170766877593,533.3176838971558,533.8170766877593,d,533.8170766877593,None,534.5664515030716,None,531.0858910926327,None,531.5689927356143,None,0.3,0.7,1,534.5854553398967,None,535.0657342690683,536.5809887755313,534.5854553398967,None,534.5854553398967,None,0.731408014689805,1,2,52,F,2021_Aug_01_1522,Social Reinforcement Learning,2021.1.4,61.026522562393666,
80,0,80,0,,,,,,,Private,PL,Private,images/Private_trial.png,0.5,81,537.0978247128369,None,538.0966707384505,539.3602940363344,538.8478705399611,539.3602940363344,d,539.3407760270638,None,None,None,536.5991457982163,None,537.0978247128369,None,0.3,0.7,-1,539.5395156230952,None,540.0256260538299,541.5263529668446,539.5395156230952,None,539.5395156230952,None,0.1432014670863282,1,2,52,F,2021_Aug_01_1522,Social Reinforcement Learning,2021.1.4,61.026522562393666,
81,0,81,0,,,,,,,Private,PL,Private,images/Private_trial.png,0.5,82,542.0454059888143,None,543.0420333495131,544.3069552142697,543.7931648054218,544.3069552142697,d,544.2903574989759,None,545.7416146239178,None,541.5449105818116,None,542.0454059888143,None,0.3,0.7,-1,545.7775547436613,None,546.2558943163313,547.782338542369,545.7775547436613,None,545.7775547436613,None,1.432072745024925,1,2,52,F,2021_Aug_01_1522,Social Reinforcement Learning,2021.1.4,61.026522562393666,
82,0,82,0,,,,,,,Private,PL,Private,images/Private_trial.png,0.5,83,548.2895499934384,None,549.2859620456584,550.5511565027991,550.0359478234604,550.5511565027991,d,550.5345212566899,None,551.3174814281723,None,547.8015610456932,None,548.2895499934384,None,0.3,0.7,-1,551.3346664022538,None,551.8165137252363,553.3150302696158,551.3346664022538,None,551.3346664022538,None,0.7596414738800377,1,2,52,F,2021_Aug_01_1522,Social Reinforcement Learning,2021.1.4,61.026522562393666,
83,0,83,0,,,,,,,Private,PL,Private,images/Private_trial.png,0.5,84,553.8314683800854,None,554.8310235409299,556.0811029482866,555.594374641485,556.096376022615,a,556.0811029482866,None,556.729024411636,None,553.3486456504615,None,553.8314683800854,None,0.3,0.7,-1,556.7406658839318,None,557.2282510789228,None,556.7406658839318,None,556.7406658839318,None,0.6292012806225102,1,2,52,F,2021_Aug_01_1522,Social Reinforcement Learning,2021.1.4,61.026522562393666,
84,0,84,0,,,,,,,Private,PL,Private,images/Private_trial.png,0.5,85,559.228562782373,None,560.2253623898432,561.4744948349835,560.9746734027285,561.4744948349835,d,561.4744948349835,None,562.8564672739216,None,558.7436090914707,None,559.228562782373,None,0.3,0.7,1,562.8638827742252,None,563.3560072248802,None,562.8638827742252,None,562.8638827742252,None,1.3635355152364355,1,2,52,F,2021_Aug_01_1522,Social Reinforcement Learning,2021.1.4,61.026522562393666,
85,0,85,0,,,,,,,Private,PL,Private,images/Private_trial.png,0.5,86,565.3537747328228,None,566.3533591282321,567.6187720543239,567.1040552264312,567.6187720543239,d,567.6023003636219,None,570.1331627590029,None,564.8761134805973,None,565.3537747328228,None,0.3,0.7,1,570.1463900078088,None,570.6157759085181,572.1306270572823,570.1463900078088,None,570.1463900078088,None,2.5077755987877026,1,2,52,F,2021_Aug_01_1522,Social Reinforcement Learning,2021.1.4,61.026522562393666,
86,0,86,0,,,,,,,Private,PL,Private,images/Private_trial.png,0.5,87,572.6472389947739,None,573.6466400816862,574.895656378736,574.3958317860088,574.895656378736,d,574.895656378736,None,576.5604252362303,None,572.1478944016853,None,572.6472389947739,None,0.3,0.7,1,576.5715171780612,None,577.0651784176589,None,576.5715171780612,None,576.5715171780612,None,1.6410306046018377,1,2,52,F,2021_Aug_01_1522,Social Reinforcement Learning,2021.1.4,61.026522562393666,
87,0,87,0,,,,,,,Private,PL,Private,images/Private_trial.png,0.5,88,579.0753192491538,None,580.0737070034957,581.3224716464465,580.8230756953708,581.3224716464465,d,581.3224716464465,None,582.3713184226857,None,578.5778338150412,None,579.0753192491538,None,0.3,0.7,1,582.3793352064677,None,582.8708955094335,None,582.3793352064677,None,582.3793352064677,None,1.0239822032744996,1,2,52,F,2021_Aug_01_1522,Social Reinforcement Learning,2021.1.4,61.026522562393666,
88,0,88,0,,,,,,,Private,PL,Private,images/Private_trial.png,0.5,89,584.8693768933299,None,585.8755789625284,587.1333893267147,586.6172573888325,587.1333893267147,d,587.1333893267147,None,588.2162216563214,None,584.3863692749874,None,584.8693768933299,None,0.3,0.7,1,588.2318809032149,None,588.7167595324572,None,588.2318809032149,None,588.2318809032149,None,1.06102592710522,1,2,52,F,2021_Aug_01_1522,Social Reinforcement Learning,2021.1.4,61.026522562393666,
89,0,89,0,,,,,,,Private,PL,Private,images/Private_trial.png,0.5,90,590.7162858538213,None,591.7125509431935,592.9622064496216,592.4631901525427,592.9622064496216,d,592.9622064496216,None,None,None,590.2308225336892,None,590.7162858538213,None,0.3,0.7,1,593.2465285953367,None,593.7304574969457,595.2425925984571,593.2465285953367,None,593.2465285953367,None,0.24791842140257359,1,2,52,F,2021_Aug_01_1522,Social Reinforcement Learning,2021.1.4,61.026522562393666,
90,0,90,0,,,,,,,Private,PL,Private,images/Private_trial.png,0.5,91,595.7439354122034,None,596.7411640563805,597.9904173903051,597.4912916612229,598.0070265623508,d,598.0070265623508,None,599.6553912846342,None,595.2592815729149,None,595.7439354122034,None,0.3,0.7,1,599.670011124952,None,600.154826939397,None,599.670011124952,None,599.670011124952,None,1.6329717467888258,1,2,52,F,2021_Aug_01_1522,Social Reinforcement Learning,2021.1.4,61.026522562393666,
91,0,91,0,,,,,,,Private,PL,Private,images/Private_trial.png,0.5,92,602.16951650806,None,603.1686039161868,604.4173689541931,603.9180358178564,604.4173689541931,d,604.4173689541931,None,None,None,601.6711532475019,None,602.16951650806,None,0.3,0.7,-1,604.9386236534338,None,605.4166290041467,None,604.9386236534338,None,604.9386236534338,None,0.4652484225225635,1,2,52,F,2021_Aug_01_1522,Social Reinforcement Learning,2021.1.4,61.026522562393666,
92,0,92,0,,,,,,,Private,PL,Private,images/Private_trial.png,0.5,93,607.4146785859484,None,608.4134768091026,609.679139018961,609.1632136982225,609.679139018961,d,609.679139018961,None,610.6952462654939,None,606.9318843007495,None,607.4146785859484,None,0.3,0.7,1,610.7042388509726,None,611.1945610314724,None,610.7042388509726,None,610.7042388509726,None,0.9903265261673369,1,2,52,F,2021_Aug_01_1522,Social Reinforcement Learning,2021.1.4,61.026522562393666,
93,0,93,0,,,,,,,Private,PL,Private,images/Private_trial.png,0.5,94,613.2069924290408,None,614.2090514891606,615.4735960702528,614.9578726258769,615.4573499596445,d,615.4573499596445,None,617.2063656641025,None,612.7103105498827,None,613.2069924290408,None,0.3,0.7,1,617.2261438213172,None,617.6989098675258,619.2055492697109,617.2261438213172,None,617.2261438213172,None,1.7275680177262984,1,2,52,F,2021_Aug_01_1522,Social Reinforcement Learning,2021.1.4,61.026522562393666,
94,0,94,0,,,,,,,Private,PL,Private,images/Private_trial.png,0.5,95,619.7371545780625,None,620.7354459374328,621.9846297405602,621.4849240613112,621.9846297405602,d,621.9846297405602,None,622.6437065531412,None,619.2411134885042,None,619.7371545780625,None,0.3,0.7,1,622.6499234371004,None,623.1350130291248,624.6485932653304,622.6499234371004,None,622.6499234371004,None,0.6416619127558079,1,2,52,F,2021_Aug_01_1522,Social Reinforcement Learning,2021.1.4,61.026522562393666,
95,0,95,0,,,,,,,Private,PL,Private,images/Private_trial.png,0.5,96,625.1481796360167,None,626.1473950440413,627.4125804147625,626.8964488719648,627.3959036871966,d,627.3959036871966,None,627.978728115579,None,624.6656046099088,None,625.1481796360167,None,0.3,0.7,1,627.9833094452915,None,628.4928391167778,None,627.9833094452915,None,627.9833094452915,None,0.5653253804775886,1,2,52,F,2021_Aug_01_1522,Social Reinforcement Learning,2021.1.4,61.026522562393666,
96,0,96,0,,,,,,,Private,PL,Private,images/Private_trial.png,0.5,97,630.4764298457885,None,631.4756025871902,632.741500648699,632.224833402608,632.741500648699,d,632.741500648699,None,634.1406614197389,None,629.994069733104,None,630.4764298457885,None,0.3,0.7,1,634.1642902405583,None,634.6396561859583,636.154438594036,634.1642902405583,None,634.1642902405583,None,1.376986171293538,1,2,52,F,2021_Aug_01_1522,Social Reinforcement Learning,2021.1.4,61.026522562393666,
97,0,97,0,,,,,,,Private,PL,Private,images/Private_trial.png,0.5,98,636.6709280624927,None,637.6706412479107,638.918386632402,638.4189669776242,638.918386632402,d,638.918386632402,None,639.5343689604982,None,636.1718627777882,None,636.6709280624927,None,0.3,0.7,1,639.5391537468531,None,640.0342502445565,None,639.5391537468531,None,639.5391537468531,None,0.5918648163205944,1,2,52,F,2021_Aug_01_1522,Social Reinforcement Learning,2021.1.4,61.026522562393666,
98,0,98,0,,,,,,,Private,PL,Private,images/Private_trial.png,0.5,99,642.050151861622,None,643.0485056407051,644.3138055792369,643.8006188241998,644.3138055792369,d,644.2971454442304,None,644.9628158318723,None,641.5515527494135,None,642.050151861622,None,0.3,0.7,1,644.9713556769711,None,645.4624359802983,None,644.9713556769711,None,644.9713556769711,None,0.6383682857558597,1,2,52,F,2021_Aug_01_1522,Social Reinforcement Learning,2021.1.4,61.026522562393666,
99,0,99,0,,,,,,,Private,PL,Private,images/Private_trial.png,0.5,100,647.4610923764412,None,648.4635468930064,649.72521503194,649.2097187478794,649.72521503194,d,649.708623637649,None,650.3578732974914,None,646.9776308324945,None,647.4610923764412,None,0.3,0.7,1,650.3665605004935,None,650.8577925074205,None,650.3665605004935,None,650.3665605004935,None,0.626523159298813,1,2,52,F,2021_Aug_01_1522,Social Reinforcement Learning,2021.1.4,61.026522562393666,
