trials.thisRepN,trials.thisTrialN,trials.thisN,trials.thisIndex,textbox.started,textbox.stopped,key_resp_2.keys,key_resp_2.rt,key_resp_2.started,key_resp_2.stopped,block_type,learning_type,trial_type,image_path,x_image,trial,person.started,person.stopped,text.started,text.stopped,text_2.started,text_2.stopped,key_resp.keys,key_resp.rt,key_resp.started,key_resp.stopped,text_4.started,text_4.stopped,line.started,line.stopped,text_5.started,text_5.stopped,reward_a,reward_d,reward,image.started,image.stopped,text_3.started,text_3.stopped,line_2.started,line_2.stopped,text_6.started,text_6.stopped,session,exp_id,age,sex(M or F),date,expName,psychopyVersion,frameRate,
,,,,16.466907997089493,None,f,144.7943668849257,16.466907997089493,None,,,,,,,,,,,,,,,,,,,,,,,,,,,,,,,,,,3,3,18,M,2021_Aug_02_1249,Social Reinforcement Learning,2021.1.4,59.44375819000326,
0,0,0,0,,,,,,,Social,UD,Private,images/Private_trial.png,0.5,1,161.7956156770224,None,162.79500135506396,164.06008029247278,163.54404273626506,164.04349359959497,a,0.8630828453651702,164.04349359959497,None,164.9263855429305,None,161.29755898873555,None,161.7956156770224,None,0.3,0.7,-1,164.94444949246372,None,165.4255366724533,None,164.94444949246372,None,164.94444949246372,None,3,3,18,M,2021_Aug_02_1249,Social Reinforcement Learning,2021.1.4,59.44375819000326,
1,0,1,0,,,,,,,Social,UD,Observational,images/Observational_trial.png,-0.5,2,167.4403530909285,None,168.43959378108684,169.70487854598105,169.18856365600186,169.68821086532125,None,,171.4534232152861,None,170.18774311149537,171.18709560429943,166.9490582898702,None,167.4403530909285,None,0.3,0.7,?,171.46467945035783,None,171.95274935743146,None,171.46467945035783,None,171.46467945035783,None,3,3,18,M,2021_Aug_02_1249,Social Reinforcement Learning,2021.1.4,59.44375819000326,
2,0,2,0,,,,,,,Social,UD,Observational,images/Observational_trial.png,-0.5,3,173.9510379473195,None,174.9560102020905,176.24174853017075,175.72907690520833,176.2680636334835,None,,177.96676289068742,None,176.73240570059215,177.73137142735277,173.46812952988375,None,173.9510379473195,None,0.3,0.7,?,177.975809146958,None,178.4648149567447,None,177.975809146958,None,177.975809146958,None,3,3,18,M,2021_Aug_02_1249,Social Reinforcement Learning,2021.1.4,59.44375819000326,
3,0,3,0,,,,,,,Social,UD,Observational,images/Observational_trial.png,-0.5,4,180.47813843458925,None,181.51047626346872,182.7594986816771,182.2282855953158,182.74502043657594,None,,184.49192559711733,None,183.2276716684196,184.264376911608,179.99329500175054,None,180.47813843458925,None,0.3,0.7,?,184.50675991191702,None,185.0086317173441,None,184.50675991191702,None,184.50675991191702,None,3,3,18,M,2021_Aug_02_1249,Social Reinforcement Learning,2021.1.4,59.44375819000326,
4,0,4,0,,,,,,,Social,UD,Private,images/Private_trial.png,0.5,5,187.00572563867763,None,188.00496869921017,189.26998521676705,188.75736534497264,189.26998521676705,a,0.6193277935053629,189.25360040075157,None,189.88874479209076,None,186.51661592749224,None,187.00572563867763,None,0.3,0.7,-1,189.9090029179306,None,190.4026246362464,None,189.9090029179306,None,189.9090029179306,None,3,3,18,M,2021_Aug_02_1249,Social Reinforcement Learning,2021.1.4,59.44375819000326,
5,0,5,0,,,,,,,Social,UD,Private,images/Private_trial.png,0.5,6,192.41666475719876,None,193.4160326574347,194.68160305241008,194.1654829281706,194.66495235943103,a,0.48288194825772734,194.66495235943103,None,195.16461327741368,None,191.93204690496304,None,192.41666475719876,None,0.3,0.7,-1,195.1679101912655,None,195.66396233317528,None,195.1679101912655,None,195.1679101912655,None,3,3,18,M,2021_Aug_02_1249,Social Reinforcement Learning,2021.1.4,59.44375819000326,
6,0,6,0,,,,,,,Social,UD,Private,images/Private_trial.png,0.5,7,197.66237497264228,None,198.66122060044745,199.92674358794056,199.4106179328287,199.910100796209,a,0.5537284799661393,199.910100796209,None,200.49292470980723,None,197.17927613515258,None,197.66237497264228,None,0.3,0.7,-1,200.49708009415144,None,200.9925688771459,None,200.49708009415144,None,200.49708009415144,None,3,3,18,M,2021_Aug_02_1249,Social Reinforcement Learning,2021.1.4,59.44375819000326,
7,0,7,0,,,,,,,Social,UD,Private,images/Private_trial.png,0.5,8,202.99020403390296,None,203.9896418601752,205.25495585968338,204.73907988397832,205.2384900558859,a,0.7682516831632711,205.2384900558859,None,206.0377943115765,None,202.5076559133331,None,202.99020403390296,None,0.3,0.7,-1,206.0419461403594,None,206.53713309571685,None,206.0419461403594,None,206.0419461403594,None,3,3,18,M,2021_Aug_02_1249,Social Reinforcement Learning,2021.1.4,59.44375819000326,
8,0,8,0,,,,,,,Social,UD,Private,images/Private_trial.png,0.5,9,208.53545329059307,None,209.53447946189362,210.78314316348587,210.28374681876085,210.78314316348587,d,0.42563701829067213,210.78314316348587,None,None,None,208.052584379393,None,208.53545329059307,None,0.3,0.7,1,211.24679979741222,None,211.73258940458572,None,211.24679979741222,None,211.24679979741222,None,3,3,18,M,2021_Aug_02_1249,Social Reinforcement Learning,2021.1.4,59.44375819000326,
9,0,9,0,,,,,,,Social,UD,Observational,images/Observational_trial.png,-0.5,10,213.74724937836982,None,214.74624631505594,216.01195972260302,215.49555515346992,215.9951288811917,None,,217.7600800949414,None,216.49477609051064,217.5103486583289,213.25093333480845,None,213.74724937836982,None,0.3,0.7,?,217.77009227866438,None,218.25957966945953,219.77771224132312,217.77009227866438,None,217.77009227866438,None,3,3,18,M,2021_Aug_02_1249,Social Reinforcement Learning,2021.1.4,59.44375819000326,
10,0,10,0,,,,,,,Social,UD,Observational,images/Observational_trial.png,-0.5,11,220.29154416441588,None,221.29017487830106,222.54130100353768,222.0591356983873,222.5733642640821,None,,224.3040414483618,None,223.03841230761464,224.0382661345443,219.7942396748481,None,220.29154416441588,None,0.3,0.7,?,224.30846824054242,None,224.7901859400472,226.30211326753715,224.30846824054242,None,224.30846824054242,None,3,3,18,M,2021_Aug_02_1249,Social Reinforcement Learning,2021.1.4,59.44375819000326,
11,0,11,0,,,,,,,Social,UD,Private,images/Private_trial.png,0.5,12,226.83383519420886,None,227.8174235139536,229.0828489210453,228.5666260805947,229.06606509205358,d,1.8048139137799808,229.06606509205358,None,230.89786243612858,None,226.32099843318292,None,226.83383519420886,None,0.3,0.7,1,230.90656103752872,None,231.4007318925146,None,230.90656103752872,None,230.90656103752872,None,3,3,18,M,2021_Aug_02_1249,Social Reinforcement Learning,2021.1.4,59.44375819000326,
12,0,12,0,,,,,,,Social,UD,Observational,images/Observational_trial.png,-0.5,13,233.429038110085,None,234.42773005863546,235.67664067419764,235.17717677381052,235.67664067419764,None,,237.44163494974433,None,236.17614131538403,237.1753875364152,232.92342822467708,None,233.429038110085,None,0.3,0.7,?,237.45261227079482,None,237.94122341329148,None,237.45261227079482,None,237.45261227079482,None,3,3,18,M,2021_Aug_02_1249,Social Reinforcement Learning,2021.1.4,59.44375819000326,
13,0,13,0,,,,,,,Social,UD,Observational,images/Observational_trial.png,-0.5,14,239.939319607814,None,240.93850222380615,242.20428042157937,241.6877518028673,242.18741639492964,None,,243.95257264604075,None,242.68687002369597,243.68632404752452,239.45633573346913,None,239.939319607814,None,0.3,0.7,?,243.9558991895692,None,244.45204970200484,None,243.9558991895692,None,243.9558991895692,None,3,3,18,M,2021_Aug_02_1249,Social Reinforcement Learning,2021.1.4,59.44375819000326,
14,0,14,0,,,,,,,Social,UD,Private,images/Private_trial.png,0.5,15,246.46902869179848,None,247.46589031646909,248.73110357507767,248.2152939698476,248.71460103048094,d,1.150178212627452,248.71460103048094,None,249.88017984028434,None,245.96920409948325,None,246.46902869179848,None,0.3,0.7,1,249.90120478215113,None,250.3797177358506,251.87854361053815,249.90120478215113,None,249.90120478215113,None,3,3,18,M,2021_Aug_02_1249,Social Reinforcement Learning,2021.1.4,59.44375819000326,
15,0,15,0,,,,,,,Social,UD,Observational,images/Observational_trial.png,-0.5,16,252.39724941787563,None,253.39394274598362,254.6589209424924,254.14307696683773,254.64233227430304,None,,256.4074233401258,None,255.14215568143163,256.1574485451042,251.89860053112216,None,252.39724941787563,None,0.3,0.7,?,256.417528758564,None,256.9068150626217,None,256.417528758564,None,256.417528758564,None,3,3,18,M,2021_Aug_02_1249,Social Reinforcement Learning,2021.1.4,59.44375819000326,
16,0,16,0,,,,,,,Social,UD,Private,images/Private_trial.png,0.5,17,258.9218108394052,None,259.920981998589,261.1863457759541,260.67006920702306,261.169596317387,d,3.244744683053341,261.169596317387,None,264.43330545510037,None,258.42454190544913,None,258.9218108394052,None,0.3,0.7,1,264.44334687343735,None,264.93266043679705,None,264.44334687343735,None,264.44334687343735,None,3,3,18,M,2021_Aug_02_1249,Social Reinforcement Learning,2021.1.4,59.44375819000326,
17,0,17,0,,,,,,,Social,UD,Observational,images/Observational_trial.png,-0.5,18,266.9475787813594,None,267.94659784153737,269.19552979046694,268.6967667306935,269.19552979046694,None,,270.96053078207353,None,269.6950497897087,270.71719421976377,266.45059626760894,None,266.9475787813594,None,0.3,0.7,?,270.9788455962007,None,271.4599845293583,None,270.9788455962007,None,270.9788455962007,None,3,3,18,M,2021_Aug_02_1249,Social Reinforcement Learning,2021.1.4,59.44375819000326,
18,0,18,0,,,,,,,Social,UD,Private,images/Private_trial.png,0.5,19,273.4747002069339,None,274.4737149214261,275.7228127965441,275.2231667724118,275.7228127965441,d,0.4297128765833804,275.7228127965441,None,None,None,272.9818310823998,None,273.4747002069339,None,0.3,0.7,1,276.2006324158142,None,276.6924743782315,None,276.2006324158142,None,276.2006324158142,None,3,3,18,M,2021_Aug_02_1249,Social Reinforcement Learning,2021.1.4,59.44375819000326,
19,0,19,0,,,,,,,Social,UD,Observational,images/Observational_trial.png,-0.5,20,278.7070656111655,None,279.718969629977,280.9890382049002,280.48389409800575,280.9890382049002,None,,282.7337570903816,None,281.4517719731707,282.4693597540504,278.21277465722414,None,278.7070656111655,None,0.3,0.7,?,282.78392183138294,None,283.2493258260952,None,282.78392183138294,None,282.78392183138294,None,3,3,18,M,2021_Aug_02_1249,Social Reinforcement Learning,2021.1.4,59.44375819000326,
20,0,20,0,,,,,,,Social,UD,Observational,images/Observational_trial.png,-0.5,21,285.29579187483205,None,286.2633995273477,287.53128538277224,287.01231211822187,287.5114232279284,None,,289.27687182518014,None,288.01092979504983,289.0102084111936,284.76512476464177,None,285.29579187483205,None,0.3,0.7,?,289.2796215776739,None,289.75987122547576,291.2749630024109,289.2796215776739,None,289.2796215776739,None,3,3,18,M,2021_Aug_02_1249,Social Reinforcement Learning,2021.1.4,59.44375819000326,
21,0,21,0,,,,,,,Social,UD,Observational,images/Observational_trial.png,-0.5,22,291.7777695253644,None,292.77368181520114,294.03896658009535,293.5229855178045,294.02231233155544,None,,295.79941724352386,None,294.5218398369816,295.52113544080703,291.2914335469568,None,291.7777695253644,None,0.3,0.7,?,295.82333048625105,None,296.32024820977495,None,295.82333048625105,None,295.82333048625105,None,3,3,18,M,2021_Aug_02_1249,Social Reinforcement Learning,2021.1.4,59.44375819000326,
22,0,22,0,,,,,,,Social,UD,Observational,images/Observational_trial.png,-0.5,23,298.3181859842939,None,299.3174053410853,300.5829216125185,300.06645738896987,300.5660919562938,None,,302.33116721962244,None,301.0666742782014,302.08166373398717,297.83092200442024,None,298.3181859842939,None,0.3,0.7,?,302.3345052199593,None,302.83396477466067,None,302.3345052199593,None,302.3345052199593,None,3,3,18,M,2021_Aug_02_1249,Social Reinforcement Learning,2021.1.4,59.44375819000326,
23,0,23,0,,,,,,,Social,UD,Private,images/Private_trial.png,0.5,24,304.84675215289235,None,305.84480844611744,307.11018447041533,306.59394661759507,307.09355274042946,d,0.2477732310489955,307.09355274042946,None,None,None,304.3489056377771,None,304.84675215289235,None,0.3,0.7,1,307.3673929756337,None,307.8595995806022,None,307.3673929756337,None,307.3673929756337,None,3,3,18,M,2021_Aug_02_1249,Social Reinforcement Learning,2021.1.4,59.44375819000326,
24,0,24,0,,,,,,,Social,UD,Private,images/Private_trial.png,0.5,25,309.8576811578173,None,310.8566844155016,312.1219893285761,311.6058842167063,312.1057321177004,d,5.735430297964285,312.1057321177004,None,317.8668852019915,None,309.3744973819221,None,309.8576811578173,None,0.3,0.7,1,317.8767725460111,None,318.3663156405978,None,317.8767725460111,None,317.8767725460111,None,3,3,18,M,2021_Aug_02_1249,Social Reinforcement Learning,2021.1.4,59.44375819000326,
25,0,25,0,,,,,,,Social,UD,Private,images/Private_trial.png,0.5,26,320.36502220645525,None,321.3726915519078,322.62891477161884,322.1130494625968,322.6122312884645,d,2.3019706500276698,322.6122312884645,None,324.94375129876755,None,319.8815397634212,None,320.36502220645525,None,0.3,0.7,-1,324.9596337139892,None,325.44298815682123,None,324.9596337139892,None,324.9596337139892,None,3,3,18,M,2021_Aug_02_1249,Social Reinforcement Learning,2021.1.4,59.44375819000326,
26,0,26,0,,,,,,,Social,UD,Private,images/Private_trial.png,0.5,27,327.44141264815835,None,328.4400445472311,329.6893762992613,329.1894738796627,329.6893762992613,d,0.6115802257068026,329.6893762992613,None,330.32182715548026,None,326.958442600996,None,327.44141264815835,None,0.3,0.7,-1,330.3315189436353,None,330.8211916186733,None,330.3315189436353,None,330.3315189436353,None,3,3,18,M,2021_Aug_02_1249,Social Reinforcement Learning,2021.1.4,59.44375819000326,
27,0,27,0,,,,,,,Social,UD,Private,images/Private_trial.png,0.5,28,332.8196370483156,None,333.81823497202595,335.0672340815554,334.5678203540865,335.0672340815554,d,0.47875117629837405,335.0672340815554,None,335.5672122346074,None,332.3365251737682,None,332.8196370483156,None,0.3,0.7,-1,335.57063833384836,None,336.06647674702526,None,335.57063833384836,None,335.57063833384836,None,3,3,18,M,2021_Aug_02_1249,Social Reinforcement Learning,2021.1.4,59.44375819000326,
28,0,28,0,,,,,,,Social,UD,Observational,images/Observational_trial.png,-0.5,29,338.0817107464072,None,339.0804548431879,340.34628834969044,339.8295171626942,340.32936664393765,None,,342.094196178483,None,340.8290051618851,341.82796654295953,337.58445247913505,None,338.0817107464072,None,0.3,0.7,?,342.10629271117887,None,342.5938932841773,None,342.10629271117887,None,342.10629271117887,None,3,3,18,M,2021_Aug_02_1249,Social Reinforcement Learning,2021.1.4,59.44375819000326,
29,0,29,0,,,,,,,Social,UD,Private,images/Private_trial.png,0.5,30,344.60859236913393,None,345.6078010592414,346.8728005891171,346.35683058857194,346.8565587856733,d,1.630643169411087,346.8565587856733,None,348.5050219141091,None,344.1112246695898,None,344.60859236913393,None,0.3,0.7,1,348.5171619036637,None,349.00452978493604,None,348.5171619036637,None,348.5171619036637,None,3,3,18,M,2021_Aug_02_1249,Social Reinforcement Learning,2021.1.4,59.44375819000326,
30,0,30,0,,,,,,,Social,UD,Private,images/Private_trial.png,0.5,31,351.00235654693415,None,352.0017556570956,353.26709098997117,352.75088039645334,353.2503201980371,d,1.9128618869917773,353.2503201980371,None,355.1823839721625,None,350.52251420841776,None,351.00235654693415,None,0.3,0.7,1,355.18564928102614,None,355.6815516943043,None,355.18564928102614,None,355.18564928102614,None,3,3,18,M,2021_Aug_02_1249,Social Reinforcement Learning,2021.1.4,59.44375819000326,
31,0,31,0,,,,,,,Social,UD,Observational,images/Observational_trial.png,-0.5,32,357.69652021178536,None,358.6953682099647,359.9441235660224,359.4447232706739,359.9441235660224,None,,361.7091680144878,None,360.4437853926488,361.44302489762003,357.19976959963606,None,357.69652021178536,None,0.3,0.7,?,361.72954584422087,None,362.2254557636834,None,361.72954584422087,None,361.72954584422087,None,3,3,18,M,2021_Aug_02_1249,Social Reinforcement Learning,2021.1.4,59.44375819000326,
32,0,32,0,,,,,,,Social,UD,Private,images/Private_trial.png,0.5,33,364.22353694583626,None,365.22252203065227,366.471578424223,365.97184943699676,366.471578424223,d,0.7110980125994502,366.471578424223,None,367.2040503767713,None,363.7265773457025,None,364.22353694583626,None,0.3,0.7,-1,367.2122180143692,None,367.703603679769,369.2021372083159,367.2122180143692,None,367.2122180143692,None,3,3,18,M,2021_Aug_02_1249,Social Reinforcement Learning,2021.1.4,59.44375819000326,
33,0,33,0,,,,,,,Social,UD,Observational,images/Observational_trial.png,-0.5,34,369.7182518016821,None,370.71883254334034,371.98290367668733,371.4666721448648,371.9663138233109,None,,373.73120340733396,None,372.4712762015233,373.48210802110907,369.2209666701697,None,369.7182518016821,None,0.3,0.7,?,373.7384671422692,None,374.2307985869411,None,373.7384671422692,None,373.7384671422692,None,3,3,18,M,2021_Aug_02_1249,Social Reinforcement Learning,2021.1.4,59.44375819000326,
34,0,34,0,,,,,,,Social,UD,Observational,images/Observational_trial.png,-0.5,35,376.2294972515515,None,377.2280130022923,378.49623861134023,377.97750238420167,378.49623861134023,None,,380.2418827328521,None,378.97642149360445,379.9755235168768,375.7460084875197,None,376.2294972515515,None,0.3,0.7,?,380.24522744924843,None,380.74141351729577,None,380.24522744924843,None,380.24522744924843,None,3,3,18,M,2021_Aug_02_1249,Social Reinforcement Learning,2021.1.4,59.44375819000326,
35,0,35,0,,,,,,,Social,UD,Observational,images/Observational_trial.png,-0.5,36,382.740397021862,None,383.7387148463645,385.0040967965974,384.48810901824663,384.9874389924962,None,,386.7526529227108,None,385.4869242262507,386.48618308927735,382.2566795167281,None,382.740397021862,None,0.3,0.7,?,386.7576201601901,None,387.25220188002277,None,386.7576201601901,None,386.7576201601901,None,3,3,18,M,2021_Aug_02_1249,Social Reinforcement Learning,2021.1.4,59.44375819000326,
36,0,36,0,,,,,,,Social,UD,Private,images/Private_trial.png,0.5,37,389.26651577918574,None,390.265753308845,391.5150649126954,391.0152102956413,391.5150649126954,d,0.8253227856953345,391.5150649126954,None,392.3641857409358,None,388.76899598063574,None,389.26651577918574,None,0.3,0.7,-1,392.37663229887585,None,392.86548956521847,None,392.37663229887585,None,392.37663229887585,None,3,3,18,M,2021_Aug_02_1249,Social Reinforcement Learning,2021.1.4,59.44375819000326,
37,0,37,0,,,,,,,Social,UD,Observational,images/Observational_trial.png,-0.5,38,394.8782749681386,None,395.87751091754853,397.14272615146865,396.62692602773495,397.1261106190391,None,,398.8911558576293,None,397.6257278036196,398.64175745857983,394.38138450391625,None,394.8782749681386,None,0.3,0.7,?,398.9012340167651,None,399.39072180262247,None,398.9012340167651,None,398.9012340167651,None,3,3,18,M,2021_Aug_02_1249,Social Reinforcement Learning,2021.1.4,59.44375819000326,
38,0,38,0,,,,,,,Social,UD,Private,images/Private_trial.png,0.5,39,401.4054919988025,None,402.40473821983323,403.6700830342056,403.15380765046166,403.65341969923156,d,2.5593446863717872,403.65341969923156,None,406.2343172887978,None,400.9081306202561,None,401.4054919988025,None,0.3,0.7,1,406.2440896696726,None,406.73415266631537,None,406.2440896696726,None,406.2440896696726,None,3,3,18,M,2021_Aug_02_1249,Social Reinforcement Learning,2021.1.4,59.44375819000326,
39,0,39,0,,,,,,,Social,UD,Observational,images/Observational_trial.png,-0.5,40,408.74897935641184,None,409.7477388606244,411.0130658971907,410.4974316996454,410.9964973771812,None,,412.7615943689394,None,411.4960485863485,412.5118649076385,408.2521406453584,None,408.74897935641184,None,0.3,0.7,?,412.771564676053,None,413.2610686594667,None,412.771564676053,None,412.771564676053,None,3,3,18,M,2021_Aug_02_1249,Social Reinforcement Learning,2021.1.4,59.44375819000326,
40,0,40,0,,,,,,,Private,PL,Private,images/Private_trial.png,0.5,41,415.27630700453483,None,416.2752158423168,417.54043581698534,417.02426077907876,417.5237219140299,d,4.5537288750279,417.5237219140299,None,422.1026520930801,None,414.77796547629123,None,415.27630700453483,None,0.3,0.7,1,422.1103353842341,None,422.60263877947864,None,422.1103353842341,None,422.1103353842341,None,3,3,18,M,2021_Aug_02_1249,Social Reinforcement Learning,2021.1.4,59.44375819000326,
41,0,41,0,,,,,,,Private,PL,Private,images/Private_trial.png,0.5,42,424.60146386404176,None,425.59976549098747,426.86800334696864,426.3492287987815,426.84818859960706,d,3.956426992872366,426.84818859960706,None,430.8294799083143,None,424.1176622106268,None,424.60146386404176,None,0.3,0.7,1,430.8447507670139,None,431.32764417208,None,430.8447507670139,None,430.8447507670139,None,3,3,18,M,2021_Aug_02_1249,Social Reinforcement Learning,2021.1.4,59.44375819000326,
42,0,42,0,,,,,,,Private,PL,Private,images/Private_trial.png,0.5,43,433.32638629354915,None,434.32488861217007,435.58993831496446,435.0738087092286,435.57334925171244,d,0.45655341282508743,435.57334925171244,None,None,None,432.84301604822303,None,433.32638629354915,None,0.3,0.7,1,436.0610651829179,None,436.5559021130307,None,436.0610651829179,None,436.0610651829179,None,3,3,18,M,2021_Aug_02_1249,Social Reinforcement Learning,2021.1.4,59.44375819000326,
43,0,43,0,,,,,,,Private,PL,Private,images/Private_trial.png,0.5,44,438.5542942092552,None,439.5531137629455,440.8022997369676,440.302730354932,440.8022997369676,d,0.3840756686631721,440.8022997369676,None,None,None,438.0710630258777,None,438.5542942092552,None,0.3,0.7,-1,441.2094107012913,None,441.70115863886804,None,441.2094107012913,None,441.2094107012913,None,3,3,18,M,2021_Aug_02_1249,Social Reinforcement Learning,2021.1.4,59.44375819000326,
44,0,44,0,,,,,,,Private,PL,Private,images/Private_trial.png,0.5,45,443.70014016812274,None,444.6986701411088,445.9640003381737,445.4480078190745,445.94734964519466,d,0.3822330978496211,445.94734964519466,None,None,None,443.21674819436794,None,443.70014016812274,None,0.3,0.7,-1,446.3511250980746,None,446.84627175707146,448.3487827733852,446.3511250980746,None,446.3511250980746,None,3,3,18,M,2021_Aug_02_1249,Social Reinforcement Learning,2021.1.4,59.44375819000326,
45,0,45,0,,,,,,,Private,PL,Private,images/Private_trial.png,0.5,46,448.8615172132618,None,449.860595532793,451.12571002581353,450.6097234326494,451.10913281443254,d,1.5609881457589836,451.10913281443254,None,452.69112946746384,None,448.3766998545384,None,448.8615172132618,None,0.3,0.7,-1,452.6950648020779,None,453.1909304745568,None,452.6950648020779,None,452.6950648020779,None,3,3,18,M,2021_Aug_02_1249,Social Reinforcement Learning,2021.1.4,59.44375819000326,
46,0,46,0,,,,,,,Private,PL,Private,images/Private_trial.png,0.5,47,455.18924790399706,None,456.18767042002264,457.4529615059146,456.9371048882649,457.436531652791,d,0.8380370773920731,457.436531652791,None,458.30275473027916,None,454.70579034989123,None,455.18924790399706,None,0.3,0.7,1,458.31775694657927,None,458.8018884770586,None,458.31775694657927,None,458.31775694657927,None,3,3,18,M,2021_Aug_02_1249,Social Reinforcement Learning,2021.1.4,59.44375819000326,
47,0,47,0,,,,,,,Private,PL,Private,images/Private_trial.png,0.5,48,460.80052709219126,None,461.79927158403416,463.06454133655916,462.54835523690735,463.04798980423084,d,1.0971529436492347,463.04798980423084,None,464.1638365848286,None,460.3171489456181,None,460.80052709219126,None,0.3,0.7,-1,464.17159375264237,None,464.66325398637673,None,464.17159375264237,None,464.17159375264237,None,3,3,18,M,2021_Aug_02_1249,Social Reinforcement Learning,2021.1.4,59.44375819000326,
48,0,48,0,,,,,,,Private,PL,Private,images/Private_trial.png,0.5,49,466.66135097102415,None,467.6603360558397,468.909007658679,468.4099443515174,468.909007658679,d,0.867029123206521,468.909007658679,None,469.7918593056544,None,466.17864126995164,None,466.66135097102415,None,0.3,0.7,-1,469.7969656050818,None,470.29126999114305,471.79010495226476,469.7969656050818,None,469.7969656050818,None,3,3,18,M,2021_Aug_02_1249,Social Reinforcement Learning,2021.1.4,59.44375819000326,
49,0,49,0,,,,,,,Private,PL,Private,images/Private_trial.png,0.5,50,472.28946653150297,None,473.28877912300914,474.55966745231444,474.03773833124114,474.53728875028355,d,0.6592942764154941,474.53728875028355,None,475.2201108465953,None,471.806824386093,None,472.28946653150297,None,0.3,0.7,1,475.22917883129503,None,475.7195069147765,None,475.22917883129503,None,475.22917883129503,None,3,3,18,M,2021_Aug_02_1249,Social Reinforcement Learning,2021.1.4,59.44375819000326,
50,0,50,0,,,,,,,Private,PL,Private,images/Private_trial.png,0.5,51,477.7179124431209,None,478.716817725342,479.9821866385173,479.48308698561914,479.9821866385173,d,7.844829779483916,479.9821866385173,None,487.86011975920167,None,477.2356835329324,None,477.7179124431209,None,0.3,0.7,1,487.87052265959164,None,488.36151168238894,489.8583638255627,487.87052265959164,None,487.87052265959164,None,3,3,18,M,2021_Aug_02_1249,Social Reinforcement Learning,2021.1.4,59.44375819000326,
51,0,51,0,,,,,,,Private,PL,Private,images/Private_trial.png,0.5,52,490.35585004381255,None,491.35495838808265,492.620435943405,492.1042794734294,492.6036924107734,d,0.40807689177609063,492.6036924107734,None,None,None,489.8729400461275,None,490.35585004381255,None,0.3,0.7,1,493.0411777440836,None,493.5362098349983,None,493.0411777440836,None,493.0411777440836,None,3,3,18,M,2021_Aug_02_1249,Social Reinforcement Learning,2021.1.4,59.44375819000326,
52,0,52,0,,,,,,,Private,PL,Private,images/Private_trial.png,0.5,53,495.53441743710437,None,496.53353723818236,497.79881410183,497.2825126439707,497.78238108820733,d,4.693550528079868,497.79881410183,None,502.51095021977346,None,495.0511807228536,None,495.53441743710437,None,0.3,0.7,1,502.51473819612966,None,503.0108278689627,None,502.51473819612966,None,502.51473819612966,None,3,3,18,M,2021_Aug_02_1249,Social Reinforcement Learning,2021.1.4,59.44375819000326,
53,0,53,0,,,,,,,Private,PL,Private,images/Private_trial.png,0.5,54,505.0089793722145,None,506.008175420327,507.2734759877153,506.75728988806304,507.25684583797874,d,1.0091919157603115,507.25684583797874,None,508.28949485747364,None,504.52619974510617,None,505.0089793722145,None,0.3,0.7,-1,508.2971184942121,None,508.78873527108817,None,508.2971184942121,None,508.2971184942121,None,3,3,18,M,2021_Aug_02_1249,Social Reinforcement Learning,2021.1.4,59.44375819000326,
54,0,54,0,,,,,,,Private,PL,Private,images/Private_trial.png,0.5,55,510.78699541648666,None,511.7858205010498,513.0512162784653,512.5354370930368,513.0345754620453,d,0.7374036344153865,513.0345754620453,None,513.8005301341715,None,510.30390171480803,None,510.78699541648666,None,0.3,0.7,1,513.8209032231557,None,514.3168321056114,None,513.8209032231557,None,513.8209032231557,None,3,3,18,M,2021_Aug_02_1249,Social Reinforcement Learning,2021.1.4,59.44375819000326,
55,0,55,0,,,,,,,Private,PL,Private,images/Private_trial.png,0.5,56,516.2988425463195,None,517.2978066928304,518.5631068651569,518.0469310371259,518.5462463940685,d,0.2140356962536316,518.5462463940685,None,None,None,515.8154675602455,None,516.2988425463195,None,0.3,0.7,1,518.7868468730421,None,519.2787224157591,None,518.7868468730421,None,518.7868468730421,None,3,3,18,M,2021_Aug_02_1249,Social Reinforcement Learning,2021.1.4,59.44375819000326,
56,0,56,0,,,,,,,Private,PL,Private,images/Private_trial.png,0.5,57,521.2771998454518,None,522.2762801402946,523.5417715227995,523.0256660158675,523.5250110024867,d,5.530925085906347,523.5250110024867,None,529.0862052522754,None,520.7944067862231,None,521.2771998454518,None,0.3,0.7,-1,529.0937854321551,None,529.5861745559305,None,529.0937854321551,None,529.0937854321551,None,3,3,18,M,2021_Aug_02_1249,Social Reinforcement Learning,2021.1.4,59.44375819000326,
57,0,57,0,,,,,,,Private,PL,Private,images/Private_trial.png,0.5,58,531.5838219596203,None,532.5831250696301,533.848714032536,533.3324240314851,533.832147487838,d,0.6733829900372257,533.832147487838,None,534.5314752892451,None,531.1010407522622,None,531.5838219596203,None,0.3,0.7,1,534.5358542788808,None,535.0308488388723,536.5296277011403,534.5358542788808,None,534.5358542788808,None,3,3,18,M,2021_Aug_02_1249,Social Reinforcement Learning,2021.1.4,59.44375819000326,
58,0,58,0,,,,,,,Private,PL,Private,images/Private_trial.png,0.5,59,537.0292334289124,None,538.0280814270918,539.2935226366781,538.7773511543328,539.2768830054451,d,0.058737080473292735,539.2768830054451,None,None,None,536.5463364682851,None,537.0292334289124,None,0.3,0.7,1,539.364813613533,None,539.8601574086442,None,539.364813613533,None,539.364813613533,None,3,3,18,M,2021_Aug_02_1249,Social Reinforcement Learning,2021.1.4,59.44375819000326,
59,0,59,0,,,,,,,Private,PL,Private,images/Private_trial.png,0.5,60,541.8582725661595,None,542.856955823338,544.1057056485229,543.6063274766657,544.1057056485229,d,0.8618312878320467,544.1057056485229,None,544.9881966035701,None,541.3752555065767,None,541.8582725661595,None,0.3,0.7,1,544.9995211844289,None,545.4877854621795,None,544.9995211844289,None,544.9995211844289,None,3,3,18,M,2021_Aug_02_1249,Social Reinforcement Learning,2021.1.4,59.44375819000326,
60,0,60,0,,,,,,,Social,SD,Private,images/Private_trial.png,0.5,61,547.4859831877266,None,548.4848035315417,549.7338745424195,549.2344086667199,549.7338745424195,d,0.7104726288953316,549.7338745424195,None,550.4666222484894,None,547.0035452895531,None,547.4859831877266,None,0.3,0.7,1,550.4718707703637,None,550.9659021683397,None,550.4718707703637,None,550.4718707703637,None,3,3,18,M,2021_Aug_02_1249,Social Reinforcement Learning,2021.1.4,59.44375819000326,
61,0,61,0,,,,,,,Social,SD,Observational,images/Observational_trial.png,-0.5,62,552.9829230347427,None,553.9800576474986,555.2454526347897,554.7317874280102,555.2454526347897,None,,556.9959295540617,None,555.7286059908838,556.7290472755317,552.4847016054546,None,552.9829230347427,None,0.3,0.7,?,557.0166668905354,None,557.4932211250903,558.9946603372414,557.0166668905354,None,557.0166668905354,None,3,3,18,M,2021_Aug_02_1249,Social Reinforcement Learning,2021.1.4,59.44375819000326,
62,0,62,0,,,,,,,Social,SD,Private,images/Private_trial.png,0.5,63,559.5104746832194,None,560.5074575920321,561.7725633936807,561.2566427759293,561.7559123056394,d,0.23648590457059981,561.7559123056394,None,None,None,559.0187101530237,None,559.5104746832194,None,0.3,0.7,1,562.0306279990173,None,562.5217991455593,None,562.0306279990173,None,562.0306279990173,None,3,3,18,M,2021_Aug_02_1249,Social Reinforcement Learning,2021.1.4,59.44375819000326,
63,0,63,0,,,,,,,Social,SD,Private,images/Private_trial.png,0.5,64,564.5199648710559,None,565.5190913881938,566.7782787607371,566.2682220534871,566.7782787607371,d,1.3666984560177298,566.7782787607371,None,568.1669654786616,None,564.0371137376615,None,564.5199648710559,None,0.3,0.7,1,568.1780775159746,None,568.6658973485787,None,568.1780775159746,None,568.1780775159746,None,3,3,18,M,2021_Aug_02_1249,Social Reinforcement Learning,2021.1.4,59.44375819000326,
64,0,64,0,,,,,,,Social,SD,Observational,images/Observational_trial.png,-0.5,65,570.6827767826599,None,571.6798545064371,572.9292672462498,572.4360816767712,572.9457144821167,None,,574.6942330773069,None,573.4336615247985,574.4441982328071,570.1843416246388,None,570.6827767826599,None,0.3,0.7,?,574.703471728943,None,575.1936864295294,None,574.703471728943,None,574.703471728943,None,3,3,18,M,2021_Aug_02_1249,Social Reinforcement Learning,2021.1.4,59.44375819000326,
65,0,65,0,,,,,,,Social,SD,Observational,images/Observational_trial.png,-0.5,66,577.1920184762762,None,578.1908976843815,579.456219190075,578.9402393129708,579.4394898796882,None,,581.2044608465554,None,579.9391169408268,580.9546962247055,576.7085486752376,None,577.1920184762762,None,0.3,0.7,?,581.209001811756,None,581.7043325698096,None,581.209001811756,None,581.209001811756,None,3,3,18,M,2021_Aug_02_1249,Social Reinforcement Learning,2021.1.4,59.44375819000326,
66,0,66,0,,,,,,,Social,SD,Observational,images/Observational_trial.png,-0.5,67,583.7023928136582,None,584.7013956762798,585.9666314534425,585.4504034771812,585.9501044149802,None,,587.7151836289323,None,586.4556024977423,587.4653862169066,583.2196736310893,None,583.7023928136582,None,0.3,0.7,?,587.7197743719894,None,588.2146243391599,None,587.7197743719894,None,587.7197743719894,None,3,3,18,M,2021_Aug_02_1249,Social Reinforcement Learning,2021.1.4,59.44375819000326,
67,0,67,0,,,,,,,Social,SD,Observational,images/Observational_trial.png,-0.5,68,590.2135023620781,None,591.2121832488824,592.4607525305723,591.9609528271849,592.4607525305723,None,,594.2257606333011,None,592.9929880383024,593.9925546549016,589.7298267335536,None,590.2135023620781,None,0.3,0.7,?,594.2322449102144,None,594.7251851459719,None,594.2322449102144,None,594.2322449102144,None,3,3,18,M,2021_Aug_02_1249,Social Reinforcement Learning,2021.1.4,59.44375819000326,
68,0,68,0,,,,,,,Social,SD,Private,images/Private_trial.png,0.5,69,596.7525677077615,None,597.740002354572,599.0219476890038,598.4886277351156,598.9950727823375,d,0.08848606575566009,598.9950727823375,None,None,None,596.2425287783171,None,596.7525677077615,None,0.3,0.7,1,599.1147221565984,None,599.603941695118,None,599.1147221565984,None,599.1147221565984,None,3,3,18,M,2021_Aug_02_1249,Social Reinforcement Learning,2021.1.4,59.44375819000326,
69,0,69,0,,,,,,,Social,SD,Private,images/Private_trial.png,0.5,70,601.6026976437693,None,602.6013172959092,603.8678366306558,603.3505447514785,603.84999087406,d,0.9183169079574327,603.84999087406,None,604.7935888886346,None,601.119299744079,None,601.6026976437693,None,0.3,0.7,-1,604.8090612291339,None,605.2986126200299,None,604.8090612291339,None,604.8090612291339,None,3,3,18,M,2021_Aug_02_1249,Social Reinforcement Learning,2021.1.4,59.44375819000326,
70,0,70,0,,,,,,,Social,SD,Private,images/Private_trial.png,0.5,71,607.296828123383,None,608.2958618008684,609.5614543193356,609.0449656019214,609.5446392804179,d,0.5108468319554049,609.5446392804179,None,610.0776695350829,None,606.8138636070935,None,607.296828123383,None,0.3,0.7,1,610.0912262182342,None,610.5774278754416,612.0762312315755,610.0912262182342,None,610.0912262182342,None,3,3,18,M,2021_Aug_02_1249,Social Reinforcement Learning,2021.1.4,59.44375819000326,
71,0,71,0,,,,,,,Social,SD,Observational,images/Observational_trial.png,-0.5,72,612.5948603968168,None,613.5911602428214,614.843216344836,614.3403604390883,614.843216344836,None,,616.6048533805093,None,615.3403047352967,616.3550725611026,612.0986150694166,None,612.5948603968168,None,0.3,0.7,?,616.6155525776635,None,617.104278683305,None,616.6155525776635,None,616.6155525776635,None,3,3,18,M,2021_Aug_02_1249,Social Reinforcement Learning,2021.1.4,59.44375819000326,
72,0,72,0,,,,,,,Social,SD,Observational,images/Observational_trial.png,-0.5,73,619.1026917178342,None,620.1016159630476,621.3670472960748,620.850722529537,621.3503732944173,None,,623.115427224379,None,621.8502140842893,622.8656669482148,618.6194467072742,None,619.1026917178342,None,0.3,0.7,?,623.1204236964722,None,623.615008576804,None,623.1204236964722,None,623.1204236964722,None,3,3,18,M,2021_Aug_02_1249,Social Reinforcement Learning,2021.1.4,59.44375819000326,
73,0,73,0,,,,,,,Social,SD,Observational,images/Observational_trial.png,-0.5,74,625.6135808214613,None,626.6121230413796,627.8776100781988,627.3781208938208,627.8776100781988,None,,629.6427110205806,None,628.3771150650709,629.3762340760245,625.1318868256981,None,625.6135808214613,None,0.3,0.7,?,629.6472247264787,None,630.1422611630796,None,629.6472247264787,None,629.6472247264787,None,3,3,18,M,2021_Aug_02_1249,Social Reinforcement Learning,2021.1.4,59.44375819000326,
74,0,74,0,,,,,,,Social,SD,Observational,images/Observational_trial.png,-0.5,75,632.1404399256335,None,633.139352714039,634.4045146145418,633.8885315769389,634.3879883662039,None,,636.1536838774265,None,634.8876667854488,635.8867873766517,631.6574679031592,None,632.1404399256335,None,0.3,0.7,?,636.1631485047287,None,636.6525244879404,None,636.1631485047287,None,636.1631485047287,None,3,3,18,M,2021_Aug_02_1249,Social Reinforcement Learning,2021.1.4,59.44375819000326,
75,0,75,0,,,,,,,Social,SD,Private,images/Private_trial.png,0.5,76,638.6677414996411,None,639.666655868296,640.9319912011715,640.415970632645,640.9153930514854,d,0.5395583834997524,640.9153930514854,None,641.48167293894,None,638.1704938990524,None,638.6677414996411,None,0.3,0.7,1,641.4926917415378,None,641.9815458473813,None,641.4926917415378,None,641.4926917415378,None,3,3,18,M,2021_Aug_02_1249,Social Reinforcement Learning,2021.1.4,59.44375819000326,
76,0,76,0,,,,,,,Social,SD,Private,images/Private_trial.png,0.5,77,643.9791387324663,None,644.9780957678554,646.2272892480623,645.7276854956021,646.2272892480623,d,1.720281632050046,646.2272892480623,None,647.9756679911794,None,643.4964981673061,None,643.9791387324663,None,0.3,0.7,-1,647.9830913313049,None,648.4751110717807,649.9736505262626,647.9830913313049,None,647.9830913313049,None,3,3,18,M,2021_Aug_02_1249,Social Reinforcement Learning,2021.1.4,59.44375819000326,
77,0,77,0,,,,,,,Social,SD,Observational,images/Observational_trial.png,-0.5,78,650.4953813260349,None,651.488707537711,652.7377113879884,652.2384181545376,652.7377113879884,None,,654.5027096141586,None,653.2373811158618,654.2529643503635,649.9937840889429,None,650.4953813260349,None,0.3,0.7,?,654.513842194714,None,655.0022415837893,None,654.513842194714,None,654.513842194714,None,3,3,18,M,2021_Aug_02_1249,Social Reinforcement Learning,2021.1.4,59.44375819000326,
78,0,78,0,,,,,,,Social,SD,Observational,images/Observational_trial.png,-0.5,79,657.0013878540453,None,657.9997716539606,659.2646127638327,658.7484329851782,659.2495913079965,None,,661.013334816134,None,659.7478704163882,660.7553019343045,656.5174641263634,None,657.0013878540453,None,0.3,0.7,?,661.0209560824987,None,661.5148136530393,663.0117851050431,661.0209560824987,None,661.0209560824987,None,3,3,18,M,2021_Aug_02_1249,Social Reinforcement Learning,2021.1.4,59.44375819000326,
79,0,79,0,,,,,,,Social,SD,Private,images/Private_trial.png,0.5,80,663.5292188116055,None,664.5268867585373,665.7922513260269,665.2760869548042,665.7759285348006,d,1.401487251733215,665.7759285348006,None,667.207522579789,None,663.0399949273997,None,663.5292188116055,None,0.3,0.7,1,667.215249722864,None,667.7073591424937,None,667.215249722864,None,667.215249722864,None,3,3,18,M,2021_Aug_02_1249,Social Reinforcement Learning,2021.1.4,59.44375819000326,
80,0,80,0,,,,,,,Social,SD,Observational,images/Observational_trial.png,-0.5,81,669.7255399119645,None,670.7214510166141,671.9866990407099,671.4703177802553,671.9698681992982,None,,673.7347972895565,None,672.4694000504101,673.4687557037128,669.2274674211835,None,669.7255399119645,None,0.3,0.7,?,673.7459851788408,None,674.2341210613272,None,673.7459851788408,None,673.7459851788408,None,3,3,18,M,2021_Aug_02_1249,Social Reinforcement Learning,2021.1.4,59.44375819000326,
81,0,81,0,,,,,,,Social,SD,Observational,images/Observational_trial.png,-0.5,82,676.232724910973,None,677.2316744401769,678.4974032551559,677.9810200193897,678.4804491542905,None,,680.2623592096544,None,678.9967186120989,679.9958115489371,675.7499816296008,None,676.232724910973,None,0.3,0.7,?,680.2674184966613,None,680.7616422900028,682.2626749829928,680.2674184966613,None,680.2674184966613,None,3,3,18,M,2021_Aug_02_1249,Social Reinforcement Learning,2021.1.4,59.44375819000326,
82,0,82,0,,,,,,,Social,SD,Observational,images/Observational_trial.png,-0.5,83,682.7953735038004,None,683.7924188324646,685.0409233239284,684.5414827322197,685.0409233239284,None,,686.8061621430712,None,685.5403635205748,686.5584309071501,682.2859864272382,None,682.7953735038004,None,0.3,0.7,?,686.8105292808368,None,687.3056020631739,None,686.8105292808368,None,686.8105292808368,None,3,3,18,M,2021_Aug_02_1249,Social Reinforcement Learning,2021.1.4,59.44375819000326,
83,0,83,0,,,,,,,Social,SD,Private,images/Private_trial.png,0.5,84,689.32023556778,None,690.3196030729532,691.5847736648279,691.0686436640299,691.56809966317,d,0.32915844607759936,691.56809966317,None,None,None,688.8231538933792,None,689.32023556778,None,0.3,0.7,-1,691.9323554486605,None,692.4007303122653,693.9159299412227,691.9323554486605,None,691.9323554486605,None,3,3,18,M,2021_Aug_02_1249,Social Reinforcement Learning,2021.1.4,59.44375819000326,
84,0,84,0,,,,,,,Social,SD,Private,images/Private_trial.png,0.5,85,694.4160994229724,None,695.4149810014515,696.6805043840072,696.1640180369668,696.6633507766533,d,5.095556101619422,696.6633507766533,None,701.7761757253148,None,693.9327362887689,None,694.4160994229724,None,0.3,0.7,1,701.7962007643669,None,702.2768423140228,703.7897920628816,701.7962007643669,None,701.7962007643669,None,3,3,18,M,2021_Aug_02_1249,Social Reinforcement Learning,2021.1.4,59.44375819000326,
85,0,85,0,,,,,,,Social,SD,Observational,images/Observational_trial.png,-0.5,86,704.306596830178,None,705.3057668041747,706.5709310750517,706.0547485309608,706.554353468608,None,,708.3192801884921,None,707.0539027024638,708.0527957377517,703.8146292379329,None,704.306596830178,None,0.3,0.7,?,708.328561506863,None,708.8188105778736,None,708.328561506863,None,708.328561506863,None,3,3,18,M,2021_Aug_02_1249,Social Reinforcement Learning,2021.1.4,59.44375819000326,
86,0,86,0,,,,,,,Social,SD,Private,images/Private_trial.png,0.5,87,710.8342539603027,None,711.8179999099261,713.0815625980249,712.5823112411836,713.0815625980249,d,2.2771872034563785,713.0815625980249,None,715.379496382414,None,710.3366002356156,None,710.8342539603027,None,0.3,0.7,-1,715.3947941053539,None,715.8789125987755,None,715.3947941053539,None,715.3947941053539,None,3,3,18,M,2021_Aug_02_1249,Social Reinforcement Learning,2021.1.4,59.44375819000326,
87,0,87,0,,,,,,,Social,SD,Observational,images/Observational_trial.png,-0.5,88,717.8943409688354,None,718.8927223983765,720.1582600031766,719.6421477801846,720.1419304958904,None,,721.9069421541805,None,720.6414350877003,721.6403996292738,717.3966714416538,None,717.8943409688354,None,0.3,0.7,?,721.9271678849077,None,722.4059870119304,None,721.9271678849077,None,721.9271678849077,None,3,3,18,M,2021_Aug_02_1249,Social Reinforcement Learning,2021.1.4,59.44375819000326,
88,0,88,0,,,,,,,Social,SD,Observational,images/Observational_trial.png,-0.5,89,724.405104047572,None,725.4034645388083,726.6686264393111,726.1526836980684,726.653736144176,None,,728.4173172816869,None,727.1517383138585,728.1507798925909,723.9213897029372,None,724.405104047572,None,0.3,0.7,?,728.4212304928087,None,728.9175070301349,None,728.4212304928087,None,728.4212304928087,None,3,3,18,M,2021_Aug_02_1249,Social Reinforcement Learning,2021.1.4,59.44375819000326,
89,0,89,0,,,,,,,Social,SD,Observational,images/Observational_trial.png,-0.5,90,730.9165474236802,None,731.9139751727016,733.1797197901747,732.6632697888708,733.1630742330062,None,,734.9447990041268,None,733.6790169742494,734.6782355409155,730.432268534943,None,730.9165474236802,None,0.3,0.7,?,734.9528844687561,None,735.4442709242803,None,734.9528844687561,None,734.9528844687561,None,3,3,18,M,2021_Aug_02_1249,Social Reinforcement Learning,2021.1.4,59.44375819000326,
90,0,90,0,,,,,,,Social,SD,Private,images/Private_trial.png,0.5,91,737.4591983552768,None,738.457945217494,739.7233951184517,739.2070968210915,739.7067673390893,d,0.6507028554319731,739.7067673390893,None,740.373137063723,None,736.9619574707476,None,737.4591983552768,None,0.3,0.7,1,740.3812035653591,None,740.8796517604374,None,740.3812035653591,None,740.3812035653591,None,3,3,18,M,2021_Aug_02_1249,Social Reinforcement Learning,2021.1.4,59.44375819000326,
91,0,91,0,,,,,,,Social,SD,Private,images/Private_trial.png,0.5,92,742.8707834007441,None,743.869705670646,745.1349532996796,744.6187758913993,745.1183002363264,d,1.7824601006777812,745.1183002363264,None,746.9168412315518,None,742.3875008592609,None,742.8707834007441,None,0.3,0.7,1,746.9212210113124,None,747.4163739913074,None,746.9212210113124,None,746.9212210113124,None,3,3,18,M,2021_Aug_02_1249,Social Reinforcement Learning,2021.1.4,59.44375819000326,
92,0,92,0,,,,,,,Social,SD,Private,images/Private_trial.png,0.5,93,749.4143141362001,None,750.4132411468504,751.6786788008753,751.1626017384324,751.6621964044589,d,1.4528939502520188,751.6621964044589,None,753.1442027760241,None,748.9314195459469,None,749.4143141362001,None,0.3,0.7,1,753.1486607781308,None,753.6435956837072,755.1422524717077,753.1486607781308,None,753.1486607781308,None,3,3,18,M,2021_Aug_02_1249,Social Reinforcement Learning,2021.1.4,59.44375819000326,
93,0,93,0,,,,,,,Social,SD,Private,images/Private_trial.png,0.5,94,755.6420916813304,None,756.6412083219097,757.9067439513979,757.3901272337816,757.8899387890392,d,3.270117167592616,757.8899387890392,None,761.1869204731585,None,755.1588759053843,None,755.6420916813304,None,0.3,0.7,1,761.1970661879568,None,761.6865026157079,None,761.1970661879568,None,761.1970661879568,None,3,3,18,M,2021_Aug_02_1249,Social Reinforcement Learning,2021.1.4,59.44375819000326,
94,0,94,0,,,,,,,Social,SD,Private,images/Private_trial.png,0.5,95,763.685473083217,None,764.6834361417264,765.9488058450265,765.4328026592439,765.9322278435206,d,3.076369898461053,765.9322278435206,None,769.0293360266052,None,763.2014577010691,None,763.685473083217,None,0.3,0.7,1,769.0335321023717,None,769.512265500864,771.0274694755076,769.0335321023717,None,769.0335321023717,None,3,3,18,M,2021_Aug_02_1249,Social Reinforcement Learning,2021.1.4,59.44375819000326,
95,0,95,0,,,,,,,Social,SD,Private,images/Private_trial.png,0.5,96,771.5310779750371,None,772.5260156460495,773.7748429034555,773.2753651758858,773.7748429034555,d,0.6084691096798451,773.7748429034555,None,774.40764062442,None,771.0440229831474,None,771.5310779750371,None,0.3,0.7,-1,774.4153563106865,None,774.9133569001197,None,774.4153563106865,None,774.4153563106865,None,3,3,18,M,2021_Aug_02_1249,Social Reinforcement Learning,2021.1.4,59.44375819000326,
96,0,96,0,,,,,,,Social,SD,Observational,images/Observational_trial.png,-0.5,97,776.9243250162176,None,777.9209733072171,779.1863402450813,778.6703315284253,779.1698641696621,None,,780.934782593237,None,779.6693569096014,780.6684324636958,776.4270805761275,None,776.9243250162176,None,0.3,0.7,?,780.9434606513946,None,781.4343959457124,None,780.9434606513946,None,780.9434606513946,None,3,3,18,M,2021_Aug_02_1249,Social Reinforcement Learning,2021.1.4,59.44375819000326,
97,0,97,0,,,,,,,Social,SD,Observational,images/Observational_trial.png,-0.5,98,783.4325506094629,None,784.4354685399999,785.6972874228741,785.184716143749,785.6972874228741,None,,787.445564239904,None,786.1800480869897,787.1791260114587,782.9494616485322,None,783.4325506094629,None,0.3,0.7,?,787.4493605125699,None,787.9450717156692,None,787.4493605125699,None,787.4493605125699,None,3,3,18,M,2021_Aug_02_1249,Social Reinforcement Learning,2021.1.4,59.44375819000326,
98,0,98,0,,,,,,,Social,SD,Private,images/Private_trial.png,0.5,99,789.9612704573165,None,790.9588384534732,792.2245929475052,791.7083819589247,792.2081899586215,d,0.14969426124525853,792.2081899586215,None,None,None,789.463069966333,None,789.9612704573165,None,0.3,0.7,1,792.382547567483,None,792.8736408867412,None,792.382547567483,None,792.382547567483,None,3,3,18,M,2021_Aug_02_1249,Social Reinforcement Learning,2021.1.4,59.44375819000326,
99,0,99,0,,,,,,,Social,SD,Private,images/Private_trial.png,0.5,100,794.8722068104012,None,795.8712049322748,797.1364474254974,796.6203434988147,797.1198627079316,d,0.5802798305658143,797.1198627079316,None,797.7194538579025,None,794.3891182445327,None,794.8722068104012,None,0.3,0.7,1,797.7236301805515,None,798.2187736790502,None,797.7236301805515,None,797.7236301805515,None,3,3,18,M,2021_Aug_02_1249,Social Reinforcement Learning,2021.1.4,59.44375819000326,
