"trials.thisRepN	trials.thisTrialN	trials.thisN	trials.thisIndex	textbox.started	textbox.stopped	key_resp_2.keys	key_resp_2.rt	key_resp_2.started	key_resp_2.stopped	block_type	learning_type	trial_type	image_path	x_image	trial	person.started	person.stopped	text.started	text.stopped	text_2.started	text_2.stopped	key_resp.keys	key_resp.rt	key_resp.started	key_resp.stopped	text_4.started	text_4.stopped	line.started	line.stopped	text_5.started	text_5.stopped	reward_a	reward_d	reward	image.started	image.stopped	text_3.started	text_3.stopped	line_2.started	line_2.stopped	text_6.started	text_6.stopped	session	exp_id	age	sex(M or F)	date	expName	psychopyVersion	frameRate"
"				21.20233465	None	f	13.41660925	21.20233465	None																																		1	3	18	M	2021_Aug_01_1544	Social Reinforcement Learning	2021.1.4	60.29259602"
"0	0	0	0							Private	PL	Private	images/Private_trial.png	0.5	1	35.23517097	None	36.21622106	37.47880337	36.97090096	37.47880337	a	1.291636708	37.46197415	None	38.77749465	None	34.72200871	None	35.23517097	None	0.7	0.3	1	38.80637566	None	39.29380599	None	38.80637566	None	38.80637566	None	1	3	18	M	2021_Aug_01_1544	Social Reinforcement Learning	2021.1.4	60.29259602"
"1	0	1	0							Private	PL	Private	images/Private_trial.png	0.5	2	41.29269666	None	42.3075723	43.57291056	43.05674939	43.55620144	a	0.861390727	43.55620144	None	44.43857305	None	40.81829624	None	41.29269666	None	0.7	0.3	1	44.44228864	None	44.94194928	None	44.44228864	None	44.44228864	None	1	3	18	M	2021_Aug_01_1544	Social Reinforcement Learning	2021.1.4	60.29259602"
"2	0	2	0							Private	PL	Private	images/Private_trial.png	0.5	3	46.93748983	None	47.93540469	49.20255984	48.68492311	49.20255984	a	0.6693332	49.20255984	None	49.9008755	None	46.45332586	None	46.93748983	None	0.7	0.3	1	49.92400283	None	50.40922002	51.91446802	49.92400283	None	49.92400283	None	1	3	18	M	2021_Aug_01_1544	Social Reinforcement Learning	2021.1.4	60.29259602"
"3	0	3	0							Private	PL	Private	images/Private_trial.png	0.5	4	52.43112104	None	53.43056519	54.6964838	54.18045378	54.67950287	d	0.714496226	54.67950287	None	55.41215568	None	51.94358365	None	52.43112104	None	0.7	0.3	1	55.43511906	None	55.91215296	57.43062168	55.43511906	None	55.43511906	None	1	3	18	M	2021_Aug_01_1544	Social Reinforcement Learning	2021.1.4	60.29259602"
"4	0	4	0							Private	PL	Private	images/Private_trial.png	0.5	5	57.94477515	None	58.94171303	60.20608616	59.69634434	60.22472634	d	1.379300046	60.20608616	None	61.60649193	None	57.45771223	None	57.94477515	None	0.7	0.3	1	61.63327634	None	62.12293837	None	61.63327634	None	61.63327634	None	1	3	18	M	2021_Aug_01_1544	Social Reinforcement Learning	2021.1.4	60.29259602"
"5	0	5	0							Private	PL	Private	images/Private_trial.png	0.5	6	64.13725579	None	65.13635742	66.40131721	65.88924098	66.40131721	d	0.979823818	66.38470093	None	67.38407946	None	63.64045105	None	64.13725579	None	0.7	0.3	-1	67.40102566	None	67.89222013	None	67.40102566	None	67.40102566	None	1	3	18	M	2021_Aug_01_1544	Social Reinforcement Learning	2021.1.4	60.29259602"
"6	0	6	0							Private	PL	Private	images/Private_trial.png	0.5	7	69.88256562	None	70.88086607	72.13023595	71.63096958	72.13023595	a	1.216253459	72.13023595	None	73.36504066	None	69.39884136	None	69.88256562	None	0.7	0.3	-1	73.3911827	None	73.87889037	None	73.3911827	None	73.3911827	None	1	3	18	M	2021_Aug_01_1544	Social Reinforcement Learning	2021.1.4	60.29259602"
"7	0	7	0							Private	PL	Private	images/Private_trial.png	0.5	8	75.89369885	None	76.89196809	78.15706022	77.64084374	78.14038073	a	1.09838649	78.14038073	None	79.25811136	None	75.39486902	None	75.89369885	None	0.7	0.3	1	79.269951	None	79.75588167	None	79.269951	None	79.269951	None	1	3	18	M	2021_Aug_01_1544	Social Reinforcement Learning	2021.1.4	60.29259602"
"8	0	8	0							Private	PL	Private	images/Private_trial.png	0.5	9	81.75475693	None	82.75316089	84.01800374	83.50292069	84.01800374	a	1.827707	84.01800374	None	85.8664293	None	81.27352275	None	81.75475693	None	0.7	0.3	1	85.8697846	None	86.36658934	87.8647203	85.8697846	None	85.8697846	None	1	3	18	M	2021_Aug_01_1544	Social Reinforcement Learning	2021.1.4	60.29259602"
"9	0	9	0							Private	PL	Private	images/Private_trial.png	0.5	10	88.36483408	None	89.36333364	90.61253561	90.11531527	90.629432	a	0.948836781	90.61253561	None	91.59281569	None	87.88125046	None	88.36483408	None	0.7	0.3	1	91.61210579	None	92.10197997	None	91.61210579	None	91.61210579	None	1	3	18	M	2021_Aug_01_1544	Social Reinforcement Learning	2021.1.4	60.29259602"
"10	0	10	0							Private	PL	Private	images/Private_trial.png	0.5	11	94.10858461	None	95.10942925	96.37427684	95.85921828	96.37427684	d	1.10253424	96.37427684	None	97.50555334	None	93.62438983	None	94.10858461	None	0.7	0.3	-1	97.5160387	None	98.00521876	99.50621629	97.5160387	None	97.5160387	None	1	3	18	M	2021_Aug_01_1544	Social Reinforcement Learning	2021.1.4	60.29259602"
"11	0	11	0							Private	PL	Private	images/Private_trial.png	0.5	12	100.0204986	None	101.0365088	102.3020857	101.7855571	102.2865479	a	2.177889045	102.2865479	None	104.4804203	None	99.53879029	None	100.0204986	None	0.7	0.3	1	104.4910361	None	104.9789618	106.480501	104.4910361	None	104.4910361	None	1	3	18	M	2021_Aug_01_1544	Social Reinforcement Learning	2021.1.4	60.29259602"
"12	0	12	0							Private	PL	Private	images/Private_trial.png	0.5	13	106.9824747	None	107.9793181	109.2548514	108.7286687	109.2278781	d	1.98729522	109.2278781	None	111.2428486	None	106.4975411	None	106.9824747	None	0.7	0.3	1	111.2554345	None	111.7427791	113.2415575	111.2554345	None	111.2554345	None	1	3	18	M	2021_Aug_01_1544	Social Reinforcement Learning	2021.1.4	60.29259602"
"13	0	13	0							Private	PL	Private	images/Private_trial.png	0.5	14	113.7594985	None	114.7565608	116.0218647	115.5089647	116.0218647	d	0.494418967	116.0049106	None	116.521097	None	113.2612162	None	113.7594985	None	0.7	0.3	-1	116.5285744	None	117.0335786	None	116.5285744	None	116.5285744	None	1	3	18	M	2021_Aug_01_1544	Social Reinforcement Learning	2021.1.4	60.29259602"
"14	0	14	0							Private	PL	Private	images/Private_trial.png	0.5	15	119.0356934	None	120.0362982	121.3000322	120.7840792	121.3000322	a	0.804903265	121.3000322	None	122.13708	None	118.5389487	None	119.0356934	None	0.7	0.3	-1	122.1689591	None	122.6665472	None	122.1689591	None	122.1689591	None	1	3	18	M	2021_Aug_01_1544	Social Reinforcement Learning	2021.1.4	60.29259602"
"15	0	15	0							Private	PL	Private	images/Private_trial.png	0.5	16	124.6647702	None	125.6630987	126.9120163	126.4120419	126.9120163	a	0.917392263	126.9120163	None	127.8612789	None	124.1805502	None	124.6647702	None	0.7	0.3	1	127.9049301	None	128.3912321	None	127.9049301	None	127.9049301	None	1	3	18	M	2021_Aug_01_1544	Social Reinforcement Learning	2021.1.4	60.29259602"
"16	0	16	0							Private	PL	Private	images/Private_trial.png	0.5	17	130.391782	None	131.3925208	132.6566134	132.1401958	132.6395673	a	0.637106855	132.6395673	None	133.2960835	None	129.8990432	None	130.391782	None	0.7	0.3	1	133.3140071	None	133.8048748	135.3037149	133.3140071	None	133.3140071	None	1	3	18	M	2021_Aug_01_1544	Social Reinforcement Learning	2021.1.4	60.29259602"
"17	0	17	0							Private	PL	Private	images/Private_trial.png	0.5	18	135.8038698	None	136.8191982	138.0866295	137.567881	138.068431	a	0.441272145	138.068431	None	None	None	135.3215274	None	135.8038698	None	0.7	0.3	1	138.5795302	None	139.0501104	140.5660799	138.5795302	None	138.5795302	None	1	3	18	M	2021_Aug_01_1544	Social Reinforcement Learning	2021.1.4	60.29259602"
"18	0	18	0							Private	PL	Private	images/Private_trial.png	0.5	19	141.0823881	None	142.0955606	143.3480167	142.8356307	143.3480167	a	1.026678892	143.3292027	None	144.3789907	None	140.5883231	None	141.0823881	None	0.7	0.3	1	144.3992155	None	144.8791369	146.3941216	144.3992155	None	144.3992155	None	1	3	18	M	2021_Aug_01_1544	Social Reinforcement Learning	2021.1.4	60.29259602"
"19	0	19	0							Private	PL	Private	images/Private_trial.png	0.5	20	146.9095602	None	147.909096	149.1737717	148.6579697	149.1574347	a	0.820664636	149.1574347	None	150.0069981	None	146.4207941	None	146.9095602	None	0.7	0.3	1	150.0425853	None	150.5252097	152.0382111	150.0425853	None	150.0425853	None	1	3	18	M	2021_Aug_01_1544	Social Reinforcement Learning	2021.1.4	60.29259602"
"20	0	20	0							Social	SD	Private	images/Private_trial.png	0.5	21	152.5376146	None	153.5370204	154.8028331	154.2860794	154.7855804	a	0.528566891	154.7855804	None	155.3358393	None	152.0550289	None	152.5376146	None	0.7	0.3	1	155.3611754	None	155.8348793	157.3497815	155.3611754	None	155.3611754	None	1	3	18	M	2021_Aug_01_1544	Social Reinforcement Learning	2021.1.4	60.29259602"
"21	0	21	0							Social	SD	Observational	images/Observational_trial.png	-0.5	22	157.9005065	None	158.8983396	160.1474721	159.6593579	160.1639319	None		161.9122134	None	160.649123	161.6626772	157.4031993	None	157.9005065	None	0.7	0.3	?	161.9253472	None	162.411874	None	161.9253472	None	161.9253472	None	1	3	18	M	2021_Aug_01_1544	Social Reinforcement Learning	2021.1.4	60.29259602"
"22	0	22	0							Social	SD	Private	images/Private_trial.png	0.5	23	164.4281387	None	165.4258932	166.6929922	166.1799762	166.6929922	d	1.573744929	166.6747724	None	168.2746538	None	163.938129	None	164.4281387	None	0.7	0.3	-1	168.2913527	None	168.7724743	None	168.2913527	None	168.2913527	None	1	3	18	M	2021_Aug_01_1544	Social Reinforcement Learning	2021.1.4	60.29259602"
"23	0	23	0							Social	SD	Private	images/Private_trial.png	0.5	24	170.7704938	None	171.7708217	173.0401272	172.5189681	173.0401272	d	0.849052564	173.0401272	None	173.9174282	None	170.2880827	None	170.7704938	None	0.7	0.3	1	173.9278969	None	174.4337648	None	173.9278969	None	173.9278969	None	1	3	18	M	2021_Aug_01_1544	Social Reinforcement Learning	2021.1.4	60.29259602"
"24	0	24	0							Social	SD	Observational	images/Observational_trial.png	-0.5	25	176.4345984	None	177.4310274	178.6972842	178.1823762	178.6972842	None		180.461395	None	179.2197821	180.2285889	175.9484907	None	176.4345984	None	0.7	0.3	?	180.474978	None	180.9539173	182.4595904	180.474978	None	180.474978	None	1	3	18	M	2021_Aug_01_1544	Social Reinforcement Learning	2021.1.4	60.29259602"
"25	0	25	0							Social	SD	Observational	images/Observational_trial.png	-0.5	26	182.9762378	None	183.9746738	185.2420845	184.7248962	185.2420845	None		186.999375	None	185.7264057	186.7377405	182.4783412	None	182.9762378	None	0.7	0.3	?	187.0242406	None	187.5051789	189.0037041	187.0242406	None	187.0242406	None	1	3	18	M	2021_Aug_01_1544	Social Reinforcement Learning	2021.1.4	60.29259602"
"26	0	26	0							Social	SD	Observational	images/Observational_trial.png	-0.5	27	189.5360249	None	190.5353299	191.7890597	191.2892355	191.8039563	None		193.5526913	None	192.2841866	193.2994629	189.0386872	None	189.5360249	None	0.7	0.3	?	193.5636156	195.5669048	194.0692235	None	193.5636156	195.5669048	193.5636156	195.5669048	1	3	18	M	2021_Aug_01_1544	Social Reinforcement Learning	2021.1.4	60.29259602"
"27	0	27	0							Social	SD	Observational	images/Observational_trial.png	-0.5	28	196.080679	None	197.0794389	198.3446524	197.8316205	198.3446524	None		200.0971266	None	198.8455345	199.8601115	195.5992074	None	196.080679	None	0.7	0.3	?	200.1138571	None	200.593607	202.108269	200.1138571	None	200.1138571	None	1	3	18	M	2021_Aug_01_1544	Social Reinforcement Learning	2021.1.4	60.29259602"
"28	0	28	0							Social	SD	Private	images/Private_trial.png	0.5	29	202.6556779	None	203.6607849	204.9223218	204.4039843	204.9054594	a	3.459879538	204.9054594	None	208.3861117	None	202.1618914	None	202.6556779	None	0.7	0.3	1	208.4132698	None	208.9015764	None	208.4132698	None	208.4132698	None	1	3	18	M	2021_Aug_01_1544	Social Reinforcement Learning	2021.1.4	60.29259602"
"29	0	29	0							Social	SD	Private	images/Private_trial.png	0.5	30	210.9002695	None	211.9157208	213.1810025	212.6477174	213.1477439	a	2.110675666	213.1642547	None	215.2977305	None	210.4171422	None	210.9002695	None	0.7	0.3	1	215.3113455	None	215.8121708	None	215.3113455	None	215.3113455	None	1	3	18	M	2021_Aug_01_1544	Social Reinforcement Learning	2021.1.4	60.29259602"
"30	0	30	0							Social	SD	Observational	images/Observational_trial.png	-0.5	31	217.8299577	None	218.840279	220.0909582	219.5711826	220.0742198	None		221.8394071	None	220.5919501	221.6066425	217.3377175	None	217.8299577	None	0.7	0.3	?	221.8666518	None	222.3389437	223.8523324	221.8666518	None	221.8666518	None	1	3	18	M	2021_Aug_01_1544	Social Reinforcement Learning	2021.1.4	60.29259602"
"31	0	31	0							Social	SD	Observational	images/Observational_trial.png	-0.5	32	224.3717682	None	225.3710042	226.6350913	226.1192102	226.6182774	None		228.3717524	None	227.1182036	228.1377283	223.8718836	None	224.3717682	None	0.7	0.3	?	228.3993463	None	228.8830824	None	228.3993463	None	228.3993463	None	1	3	18	M	2021_Aug_01_1544	Social Reinforcement Learning	2021.1.4	60.29259602"
"32	0	32	0							Social	SD	Observational	images/Observational_trial.png	-0.5	33	230.8990468	None	231.8987904	233.148325	232.6462059	233.148325	None		234.912096	None	233.6452107	234.6606454	230.4046476	None	230.8990468	None	0.7	0.3	?	234.9346592	None	235.4220149	None	234.9346592	None	234.9346592	None	1	3	18	M	2021_Aug_01_1544	Social Reinforcement Learning	2021.1.4	60.29259602"
"33	0	33	0							Social	SD	Private	images/Private_trial.png	0.5	34	237.4582637	None	238.4576087	239.7223738	239.2124344	239.743811	a	1.285465058	239.7223738	None	241.0476724	None	236.9658821	None	237.4582637	None	0.7	0.3	1	241.086375	None	241.5717613	None	241.086375	None	241.086375	None	1	3	18	M	2021_Aug_01_1544	Social Reinforcement Learning	2021.1.4	60.29259602"
"34	0	34	0							Social	SD	Observational	images/Observational_trial.png	-0.5	35	243.6000766	None	244.5851476	245.8371541	245.3340841	245.8371541	None		247.5985188	None	246.3392531	247.3486745	243.0983118	None	243.6000766	None	0.7	0.3	?	247.6157893	None	248.1038075	None	247.6157893	None	247.6157893	None	1	3	18	M	2021_Aug_01_1544	Social Reinforcement Learning	2021.1.4	60.29259602"
"35	0	35	0							Social	SD	Private	images/Private_trial.png	0.5	36	250.1150257	None	251.1123144	252.3776325	251.8640124	252.3776325	d	1.324740089	252.3609629	None	253.7098767	None	249.6161982	None	250.1150257	None	0.7	0.3	1	253.7358327	None	254.2091526	255.710322	253.7358327	None	253.7358327	None	1	3	18	M	2021_Aug_01_1544	Social Reinforcement Learning	2021.1.4	60.29259602"
"36	0	36	0							Social	SD	Private	images/Private_trial.png	0.5	37	256.241268	None	257.2271176	258.4923485	257.9749871	258.4751688	d	2.339332473	258.4751688	None	260.8367049	None	255.7336492	None	256.241268	None	0.7	0.3	-1	260.8588781	None	261.3397275	262.856763	260.8588781	None	260.8588781	None	1	3	18	M	2021_Aug_01_1544	Social Reinforcement Learning	2021.1.4	60.29259602"
"37	0	37	0							Social	SD	Private	images/Private_trial.png	0.5	38	263.3718042	None	264.3667726	265.6338942	265.1288943	265.6338942	a	0.689992936	265.6153034	None	266.3358523	None	262.8734879	None	263.3718042	None	0.7	0.3	-1	266.3389046	None	266.8309224	None	266.3389046	None	266.3389046	None	1	3	18	M	2021_Aug_01_1544	Social Reinforcement Learning	2021.1.4	60.29259602"
"38	0	38	0							Social	SD	Observational	images/Observational_trial.png	-0.5	39	268.8456112	None	269.8619568	271.126503	270.5941167	271.0933969	None		272.8585186	None	271.5990976	272.6084617	268.3606464	None	268.8456112	None	0.7	0.3	?	272.8795703	None	273.3730608	None	272.8795703	None	272.8795703	None	1	3	18	M	2021_Aug_01_1544	Social Reinforcement Learning	2021.1.4	60.29259602"
"39	0	39	0							Social	SD	Private	images/Private_trial.png	0.5	40	275.3898932	None	276.3905494	277.6538393	277.1379357	277.6370176	a	1.406624864	277.6370176	None	279.0693648	None	274.8897561	None	275.3898932	None	0.7	0.3	1	279.0808023	None	279.566968	281.0690552	279.0808023	None	279.0808023	None	1	3	18	M	2021_Aug_01_1544	Social Reinforcement Learning	2021.1.4	60.29259602"
"40	0	40	0							Social	SD	Private	images/Private_trial.png	0.5	41	281.5671644	None	282.5658382	283.8148533	283.3403106	283.8481747	a	0.951158952	283.8315434	None	284.8137273	None	281.0845854	None	281.5671644	None	0.7	0.3	1	284.818715	None	285.3133137	None	284.818715	None	284.818715	None	1	3	18	M	2021_Aug_01_1544	Social Reinforcement Learning	2021.1.4	60.29259602"
"41	0	41	0							Social	SD	Private	images/Private_trial.png	0.5	42	287.3186791	None	288.3110737	289.5804811	289.0596408	289.5623379	a	0.834551044	289.5623379	None	290.4286175	None	286.8288977	None	287.3186791	None	0.7	0.3	-1	290.4603935	None	290.958278	None	290.4603935	None	290.4603935	None	1	3	18	M	2021_Aug_01_1544	Social Reinforcement Learning	2021.1.4	60.29259602"
"42	0	42	0							Social	SD	Observational	images/Observational_trial.png	-0.5	43	292.9641261	None	293.9743423	295.2371755	294.721123	295.2205071	None		296.9895699	None	295.7200089	296.7197004	292.4779149	None	292.9641261	None	0.7	0.3	?	297.0489991	None	297.5185292	None	297.0489991	None	297.0489991	None	1	3	18	M	2021_Aug_01_1544	Social Reinforcement Learning	2021.1.4	60.29259602"
"43	0	43	0							Social	SD	Private	images/Private_trial.png	0.5	44	299.5228614	None	300.5310001	301.7812217	301.2650665	301.7654465	d	1.49755694	301.7654465	None	303.2808764	None	299.0262127	None	299.5228614	None	0.7	0.3	-1	303.3311602	None	303.8125647	None	303.3311602	None	303.3311602	None	1	3	18	M	2021_Aug_01_1544	Social Reinforcement Learning	2021.1.4	60.29259602"
"44	0	44	0							Social	SD	Private	images/Private_trial.png	0.5	45	305.7944132	None	306.7930901	308.0425446	307.5424296	308.0425446	d	3.409402146	308.0425446	None	311.4734755	None	305.3112855	None	305.7944132	None	0.7	0.3	-1	311.4997717	None	311.9717499	313.4870527	311.4997717	None	311.4997717	None	1	3	18	M	2021_Aug_01_1544	Social Reinforcement Learning	2021.1.4	60.29259602"
"45	0	45	0							Social	SD	Private	images/Private_trial.png	0.5	46	314.00301	None	315.0021918	316.2510355	315.754209	316.2699652	a	2.27900778	316.2510355	None	318.5494569	None	313.5125033	None	314.00301	None	0.7	0.3	1	318.5841943	None	319.0649382	320.5644381	318.5841943	None	318.5841943	None	1	3	18	M	2021_Aug_01_1544	Social Reinforcement Learning	2021.1.4	60.29259602"
"46	0	46	0							Social	SD	Observational	images/Observational_trial.png	-0.5	47	321.1288299	None	322.1119979	323.3615721	322.8694618	323.3782294	None		325.1279706	None	323.8607649	324.8598148	320.6201643	None	321.1288299	None	0.7	0.3	?	325.1650033	None	325.6492443	None	325.1650033	None	325.1650033	None	1	3	18	M	2021_Aug_01_1544	Social Reinforcement Learning	2021.1.4	60.29259602"
"47	0	47	0							Social	SD	Observational	images/Observational_trial.png	-0.5	48	327.6594345	None	328.6593042	329.9221812	329.4059805	329.9061599	None		331.6701549	None	330.4057775	331.4204295	327.1619562	None	327.6594345	None	0.7	0.3	?	331.6783631	None	332.1693581	333.6684783	331.6783631	None	331.6783631	None	1	3	18	M	2021_Aug_01_1544	Social Reinforcement Learning	2021.1.4	60.29259602"
"48	0	48	0							Social	SD	Private	images/Private_trial.png	0.5	49	334.1960208	None	335.1839603	336.4349998	335.9350065	336.4349998	a	2.998211557	336.4349998	None	339.455375	None	333.6983169	None	334.1960208	None	0.7	0.3	1	339.4661784	None	339.962257	None	339.4661784	None	339.4661784	None	1	3	18	M	2021_Aug_01_1544	Social Reinforcement Learning	2021.1.4	60.29259602"
"49	0	49	0							Social	SD	Private	images/Private_trial.png	0.5	50	341.9783408	None	342.9783775	344.2543666	343.7275625	344.2543666	a	3.770413613	344.224831	None	348.0216252	None	341.4888249	None	341.9783408	None	0.7	0.3	1	348.0464651	None	348.521135	350.0218026	348.0464651	None	348.0464651	None	1	3	18	M	2021_Aug_01_1544	Social Reinforcement Learning	2021.1.4	60.29259602"
"50	0	50	0							Social	SD	Observational	images/Observational_trial.png	-0.5	51	350.5671415	None	351.551552	352.8169673	352.3007097	352.8005169	None		354.5726644	None	353.3084162	354.3319302	350.0611863	None	350.5671415	None	0.7	0.3	?	354.6497504	None	355.1323851	None	354.6497504	None	354.6497504	None	1	3	18	M	2021_Aug_01_1544	Social Reinforcement Learning	2021.1.4	60.29259602"
"51	0	51	0							Social	SD	Observational	images/Observational_trial.png	-0.5	52	357.0808169	None	358.0896169	359.3440855	358.8283245	359.3274557	None		361.1076716	None	359.8381832	360.8435636	356.5970034	None	357.0808169	None	0.7	0.3	?	361.1270446	None	361.6088706	363.1236669	361.1270446	None	361.1270446	None	1	3	18	M	2021_Aug_01_1544	Social Reinforcement Learning	2021.1.4	60.29259602"
"52	0	52	0							Social	SD	Observational	images/Observational_trial.png	-0.5	53	363.6260451	None	364.632811	365.8884228	365.3721115	365.8884228	None		367.63637	None	366.3750618	367.3867312	363.1408153	None	363.6260451	None	0.7	0.3	?	367.6409184	None	368.1358739	None	367.6409184	None	367.6409184	None	1	3	18	M	2021_Aug_01_1544	Social Reinforcement Learning	2021.1.4	60.29259602"
"53	0	53	0							Social	SD	Observational	images/Observational_trial.png	-0.5	54	370.1348285	None	371.1353156	372.3844007	371.8827726	372.3844007	None		374.1476356	None	372.8812046	373.8812576	369.6510529	None	370.1348285	None	0.7	0.3	?	374.1729132	None	374.6469538	376.1666104	374.1729132	None	374.1729132	None	1	3	18	M	2021_Aug_01_1544	Social Reinforcement Learning	2021.1.4	60.29259602"
"54	0	54	0							Social	SD	Observational	images/Observational_trial.png	-0.5	55	376.6960204	None	377.6936824	378.9590756	378.4466331	378.9590756	None		380.7099301	None	379.4424581	380.4566653	376.2003783	None	376.6960204	None	0.7	0.3	?	380.734757	None	381.207585	382.722341	380.734757	None	380.734757	None	1	3	18	M	2021_Aug_01_1544	Social Reinforcement Learning	2021.1.4	60.29259602"
"55	0	55	0							Social	SD	Observational	images/Observational_trial.png	-0.5	56	383.2225819	None	384.2380735	385.5029373	384.9852579	385.4862542	None		387.251871	None	385.9858173	387.0016004	382.7406185	None	383.2225819	None	0.7	0.3	?	387.2611115	None	387.750892	389.2493466	387.2611115	None	387.2611115	None	1	3	18	M	2021_Aug_01_1544	Social Reinforcement Learning	2021.1.4	60.29259602"
"56	0	56	0							Social	SD	Private	images/Private_trial.png	0.5	57	389.770369	None	390.7651178	392.0302637	391.5147575	392.0135913	a	2.484822531	392.0135913	None	394.5284507	None	389.2733454	None	389.770369	None	0.7	0.3	1	394.5603365	None	395.0445096	None	394.5603365	None	394.5603365	None	1	3	18	M	2021_Aug_01_1544	Social Reinforcement Learning	2021.1.4	60.29259602"
"57	0	57	0							Social	SD	Private	images/Private_trial.png	0.5	58	397.0426619	None	398.0419184	399.3066617	398.7904618	399.2901975	a	4.079041913	399.2901975	None	403.389139	None	396.5592537	None	397.0426619	None	0.7	0.3	1	403.4153735	None	403.9027422	None	403.4153735	None	403.4153735	None	1	3	18	M	2021_Aug_01_1544	Social Reinforcement Learning	2021.1.4	60.29259602"
"58	0	58	0							Social	SD	Observational	images/Observational_trial.png	-0.5	59	405.9202715	None	406.9216479	408.1850258	407.6819724	408.1850258	None		409.9469661	None	408.6820526	409.6973802	405.4240427	None	405.9202715	None	0.7	0.3	?	409.9784059	None	410.4464245	None	409.9784059	None	409.9784059	None	1	3	18	M	2021_Aug_01_1544	Social Reinforcement Learning	2021.1.4	60.29259602"
"59	0	59	0							Social	SD	Private	images/Private_trial.png	0.5	60	412.4779809	None	413.4770809	414.7260091	414.2263062	414.7260091	a	0.910280762	414.7260091	None	415.6585883	None	411.9875931	None	412.4779809	None	0.7	0.3	1	415.6893391	None	416.1726276	None	415.6893391	None	415.6893391	None	1	3	18	M	2021_Aug_01_1544	Social Reinforcement Learning	2021.1.4	60.29259602"
"60	0	60	0							Social	UD	Observational	images/Observational_trial.png	-0.5	61	418.1729729	None	419.171459	420.443603	419.9245026	420.443603	None		422.1854137	None	420.9278452	421.9359432	417.6878146	None	418.1729729	None	0.7	0.3	?	422.1978902	None	422.687638	None	422.1978902	None	422.1978902	None	1	3	18	M	2021_Aug_01_1544	Social Reinforcement Learning	2021.1.4	60.29259602"
"61	0	61	0							Social	UD	Observational	images/Observational_trial.png	-0.5	62	424.6844123	None	425.6859214	426.9494732	426.4448324	426.9494732	None		428.6963806	None	427.4306395	428.4299339	424.2002144	None	424.6844123	None	0.7	0.3	?	428.7093095	None	429.1954009	None	428.7093095	None	428.7093095	None	1	3	18	M	2021_Aug_01_1544	Social Reinforcement Learning	2021.1.4	60.29259602"
"62	0	62	0							Social	UD	Private	images/Private_trial.png	0.5	63	431.224993	None	432.2118975	433.4589626	432.9623961	433.4751759	a	0.528088077	433.4589626	None	434.0076661	None	430.7218155	None	431.224993	None	0.7	0.3	1	434.0245704	None	434.5100128	None	434.0245704	None	434.0245704	None	1	3	18	M	2021_Aug_01_1544	Social Reinforcement Learning	2021.1.4	60.29259602"
"63	0	63	0							Social	UD	Observational	images/Observational_trial.png	-0.5	64	436.5223403	None	437.5212567	438.7865404	438.2716995	438.7865404	None		440.5499697	None	439.2692103	440.2685643	436.0265481	None	436.5223403	None	0.7	0.3	?	440.574106	None	441.0701005	None	440.574106	None	440.574106	None	1	3	18	M	2021_Aug_01_1544	Social Reinforcement Learning	2021.1.4	60.29259602"
"64	0	64	0							Social	UD	Private	images/Private_trial.png	0.5	65	443.0865986	None	444.0814451	445.3314917	444.8358666	445.3314917	d	0.871144398	445.3314917	None	446.2316209	None	442.5965131	None	443.0865986	None	0.7	0.3	-1	446.2758449	None	446.7577112	None	446.2758449	None	446.2758449	None	1	3	18	M	2021_Aug_01_1544	Social Reinforcement Learning	2021.1.4	60.29259602"
"65	0	65	0							Social	UD	Private	images/Private_trial.png	0.5	66	448.7438434	None	449.7454133	451.008753	450.4953956	451.008753	d	0.60787073	450.9920336	None	451.623412	None	448.2609456	None	448.7438434	None	0.7	0.3	-1	451.6484416	None	452.1382332	453.6393457	451.6484416	None	451.6484416	None	1	3	18	M	2021_Aug_01_1544	Social Reinforcement Learning	2021.1.4	60.29259602"
"66	0	66	0							Social	UD	Observational	images/Observational_trial.png	-0.5	67	454.1555926	None	455.154661	456.4035296	455.9145281	456.4201553	None		458.1840757	None	456.9067153	457.9191637	453.6629107	None	454.1555926	None	0.7	0.3	?	458.2245328	None	458.7012016	None	458.2245328	None	458.2245328	None	1	3	18	M	2021_Aug_01_1544	Social Reinforcement Learning	2021.1.4	60.29259602"
"67	0	67	0							Social	UD	Observational	images/Observational_trial.png	-0.5	68	460.7005253	None	461.7027838	462.9639574	462.4480301	462.947189	None		464.7204197	None	463.4492247	464.4623301	460.2164739	None	460.7005253	None	0.7	0.3	?	464.7323925	None	465.2310852	None	464.7323925	None	464.7323925	None	1	3	18	M	2021_Aug_01_1544	Social Reinforcement Learning	2021.1.4	60.29259602"
"68	0	68	0							Social	UD	Observational	images/Observational_trial.png	-0.5	69	467.2280595	None	468.2259435	469.476661	468.9769513	469.4914137	None		471.2426352	None	469.9783167	470.9898912	466.7457108	None	467.2280595	None	0.7	0.3	?	471.2673965	None	471.75419	473.2542852	471.2673965	None	471.2673965	None	1	3	18	M	2021_Aug_01_1544	Social Reinforcement Learning	2021.1.4	60.29259602"
"69	0	69	0							Social	UD	Private	images/Private_trial.png	0.5	70	473.7708814	None	474.7700265	476.018891	475.5190724	476.018891	a	0.737532652	476.018891	None	476.7726085	None	473.2740071	None	473.7708814	None	0.7	0.3	1	476.7907304	None	477.2680405	478.7826052	476.7907304	None	476.7907304	None	1	3	18	M	2021_Aug_01_1544	Social Reinforcement Learning	2021.1.4	60.29259602"
"70	0	70	0							Social	UD	Private	images/Private_trial.png	0.5	71	479.299805	None	480.2982797	481.5492223	481.0491903	481.5492223	a	1.187696049	481.5492223	None	482.7620201	None	478.8012809	None	479.299805	None	0.7	0.3	1	482.7719709	None	483.2617325	484.7690341	482.7719709	None	482.7719709	None	1	3	18	M	2021_Aug_01_1544	Social Reinforcement Learning	2021.1.4	60.29259602"
"71	0	71	0							Social	UD	Observational	images/Observational_trial.png	-0.5	72	485.3262488	None	486.3089827	487.5742522	487.0648414	487.5742522	None		489.3234826	None	488.0755278	489.0893736	484.8206382	None	485.3262488	None	0.7	0.3	?	489.3981753	None	489.8722186	None	489.3981753	None	489.3981753	None	1	3	18	M	2021_Aug_01_1544	Social Reinforcement Learning	2021.1.4	60.29259602"
"72	0	72	0							Social	UD	Observational	images/Observational_trial.png	-0.5	73	491.8552882	None	492.8528823	494.1179697	493.6019377	494.1013957	None		495.8681992	None	494.6028088	495.6174059	491.3700896	None	491.8552882	None	0.7	0.3	?	495.8947517	None	496.3674723	497.8644912	495.8947517	None	495.8947517	None	1	3	18	M	2021_Aug_01_1544	Social Reinforcement Learning	2021.1.4	60.29259602"
"73	0	73	0							Social	UD	Private	images/Private_trial.png	0.5	74	498.397572	None	499.4002355	500.660882	500.1628854	500.6795289	a	2.987296405	500.660882	None	503.6791579	None	497.9041352	None	498.397572	None	0.7	0.3	-1	503.7113353	None	504.1965478	None	503.7113353	None	503.7113353	None	1	3	18	M	2021_Aug_01_1544	Social Reinforcement Learning	2021.1.4	60.29259602"
"74	0	74	0							Social	UD	Observational	images/Observational_trial.png	-0.5	75	506.206736	None	507.2085162	508.4715196	507.9607198	508.4715196	None		510.2214299	None	508.9542404	509.9533128	505.7105741	None	506.206736	None	0.7	0.3	?	510.2693039	None	510.7423386	None	510.2693039	None	510.2693039	None	1	3	18	M	2021_Aug_01_1544	Social Reinforcement Learning	2021.1.4	60.29259602"
"75	0	75	0							Social	UD	Observational	images/Observational_trial.png	-0.5	76	512.7510054	None	513.7496168	514.9992435	514.4999941	514.9992435	None		516.7670429	None	515.5137683	516.5145556	512.2583196	None	512.7510054	None	0.7	0.3	?	516.7999693	None	517.2802842	None	516.7999693	None	516.7999693	None	1	3	18	M	2021_Aug_01_1544	Social Reinforcement Learning	2021.1.4	60.29259602"
"76	0	76	0							Social	UD	Private	images/Private_trial.png	0.5	77	519.2950907	None	520.2946593	521.5613072	521.0432892	521.5613072	a	0.145068922	521.5423091	None	None	None	518.8055871	None	519.2950907	None	0.7	0.3	1	521.7517584	None	522.2290779	None	521.7517584	None	521.7517584	None	1	3	18	M	2021_Aug_01_1544	Social Reinforcement Learning	2021.1.4	60.29259602"
"77	0	77	0							Social	UD	Observational	images/Observational_trial.png	-0.5	78	524.2656211	None	525.2561586	526.5073051	526.017389	526.5367972	None		528.2853702	None	527.0108638	528.0187911	523.7618447	None	524.2656211	None	0.7	0.3	?	528.3327835	None	528.8198461	None	528.3327835	None	528.3327835	None	1	3	18	M	2021_Aug_01_1544	Social Reinforcement Learning	2021.1.4	60.29259602"
"78	0	78	0							Social	UD	Private	images/Private_trial.png	0.5	79	530.8333224	None	531.8168515	533.0874844	532.565449	533.0660902	a	1.837111042	533.0660902	None	534.9306378	None	530.3207863	None	530.8333224	None	0.7	0.3	-1	534.9611884	None	535.4525097	None	534.9611884	None	534.9611884	None	1	3	18	M	2021_Aug_01_1544	Social Reinforcement Learning	2021.1.4	60.29259602"
"79	0	79	0							Social	UD	Private	images/Private_trial.png	0.5	80	537.4612275	None	538.4603651	539.7288385	539.2094398	539.7098029	a	0.435688347	539.7098029	None	None	None	536.9687925	None	537.4612275	None	0.7	0.3	1	540.1918758	None	540.6871995	None	540.1918758	None	540.1918758	None	1	3	18	M	2021_Aug_01_1544	Social Reinforcement Learning	2021.1.4	60.29259602"
"80	0	80	0							Social	UD	Private	images/Private_trial.png	0.5	81	542.689362	None	543.7002637	544.9539516	544.4378454	544.9372781	d	0.504049775	544.9372781	None	545.4699848	None	542.2040781	None	542.689362	None	0.7	0.3	1	545.474144	None	545.9696664	None	545.474144	None	545.474144	None	1	3	18	M	2021_Aug_01_1544	Social Reinforcement Learning	2021.1.4	60.29259602"
"81	0	81	0							Social	UD	Private	images/Private_trial.png	0.5	82	547.9859702	None	548.9835402	550.2331826	549.7327496	550.2331826	d	0.728216313	550.2331826	None	550.9856146	None	547.4873059	None	547.9859702	None	0.7	0.3	-1	551.0172342	None	551.5194208	None	551.0172342	None	551.0172342	None	1	3	18	M	2021_Aug_01_1544	Social Reinforcement Learning	2021.1.4	60.29259602"
"82	0	82	0							Social	UD	Private	images/Private_trial.png	0.5	83	553.4970611	None	554.4988196	555.760801	555.2484893	555.760801	a	0.828744827	555.7441262	None	556.5963404	None	553.0131769	None	553.4970611	None	0.7	0.3	-1	556.6195673	None	557.1065639	558.6081026	556.6195673	None	556.6195673	None	1	3	18	M	2021_Aug_01_1544	Social Reinforcement Learning	2021.1.4	60.29259602"
"83	0	83	0							Social	UD	Private	images/Private_trial.png	0.5	84	559.107497	None	560.1086881	561.3733054	560.8775938	561.3890466	a	0.723730391	561.3557666	None	562.1071995	None	558.6244459	None	559.107497	None	0.7	0.3	-1	562.1307709	None	562.6039956	564.1036234	562.1307709	None	562.1307709	None	1	3	18	M	2021_Aug_01_1544	Social Reinforcement Learning	2021.1.4	60.29259602"
"84	0	84	0							Social	UD	Observational	images/Observational_trial.png	-0.5	85	564.656199	None	565.6541391	566.9156868	566.4003624	566.9156868	None		568.6652182	None	567.3996422	568.3990895	564.1557664	None	564.656199	None	0.7	0.3	?	568.6817689	None	569.1643898	None	568.6817689	None	568.6817689	None	1	3	18	M	2021_Aug_01_1544	Social Reinforcement Learning	2021.1.4	60.29259602"
"85	0	85	0							Social	UD	Observational	images/Observational_trial.png	-0.5	86	571.1802116	None	572.1626594	573.4263862	572.9123726	573.4263862	None		575.1764846	None	573.9104747	574.9245026	570.6800168	None	571.1802116	None	0.7	0.3	?	575.2046473	None	575.7065073	None	575.2046473	None	575.2046473	None	1	3	18	M	2021_Aug_01_1544	Social Reinforcement Learning	2021.1.4	60.29259602"
"86	0	86	0							Social	UD	Observational	images/Observational_trial.png	-0.5	87	577.706484	None	578.7110363	579.9859718	579.4584526	579.9602932	None		581.7226965	None	580.4609944	581.468751	577.2107036	None	577.706484	None	0.7	0.3	?	581.7496041	None	582.2271508	583.7342153	581.7496041	None	581.7496041	None	1	3	18	M	2021_Aug_01_1544	Social Reinforcement Learning	2021.1.4	60.29259602"
"87	0	87	0							Social	UD	Private	images/Private_trial.png	0.5	88	584.2513333	None	585.2513843	586.5141313	585.9994015	586.5141313	a	3.273013908	586.5141313	None	589.8126156	None	583.7563648	None	584.2513333	None	0.7	0.3	1	589.8363466	None	590.3283845	591.82689	589.8363466	None	589.8363466	None	1	3	18	M	2021_Aug_01_1544	Social Reinforcement Learning	2021.1.4	60.29259602"
"88	0	88	0							Social	UD	Observational	images/Observational_trial.png	-0.5	89	592.3430784	None	593.3428932	594.6078206	594.091689	594.5909115	None		596.3597085	None	595.0940013	596.1218527	591.8471891	None	592.3430784	None	0.7	0.3	?	596.4155947	None	596.9083426	None	596.4155947	None	596.4155947	None	1	3	18	M	2021_Aug_01_1544	Social Reinforcement Learning	2021.1.4	60.29259602"
"89	0	89	0							Social	UD	Observational	images/Observational_trial.png	-0.5	90	598.8702974	None	599.8711057	601.1348759	600.6243132	601.1348759	None		602.8998582	None	601.6375738	602.6500028	598.3883904	None	598.8702974	None	0.7	0.3	?	602.9076461	None	603.4019102	None	602.9076461	None	602.9076461	None	1	3	18	M	2021_Aug_01_1544	Social Reinforcement Learning	2021.1.4	60.29259602"
"90	0	90	0							Social	UD	Observational	images/Observational_trial.png	-0.5	91	605.415155	None	606.4170118	607.6783758	607.1625583	607.6620313	None		609.4274825	None	608.1638308	609.1776571	604.9165524	None	605.415155	None	0.7	0.3	?	609.4430827	None	609.9267734	611.4263234	609.4430827	None	609.4430827	None	1	3	18	M	2021_Aug_01_1544	Social Reinforcement Learning	2021.1.4	60.29259602"
"91	0	91	0							Social	UD	Observational	images/Observational_trial.png	-0.5	92	611.9423195	None	612.946118	614.2059341	613.6901612	614.1900605	None		615.9546781	None	614.6913725	615.7047141	611.4554485	None	611.9423195	None	0.7	0.3	?	615.9691678	617.9690051	616.4710037	None	615.9691678	617.9690051	615.9691678	617.9690051	1	3	18	M	2021_Aug_01_1544	Social Reinforcement Learning	2021.1.4	60.29259602"
"92	0	92	0							Social	UD	Private	images/Private_trial.png	0.5	93	618.4856277	None	619.4846689	620.7572201	620.2389873	620.7572201	a	0.759044931	620.7395664	None	621.5190064	None	617.9887573	None	618.4856277	None	0.7	0.3	1	621.5681568	None	622.0495735	None	621.5681568	None	621.5681568	None	1	3	18	M	2021_Aug_01_1544	Social Reinforcement Learning	2021.1.4	60.29259602"
"93	0	93	0							Social	UD	Private	images/Private_trial.png	0.5	94	624.0299911	None	625.0304063	626.2944689	625.7829714	626.2944689	d	0.961396969	626.2777693	None	627.260366	None	623.5471545	None	624.0299911	None	0.7	0.3	-1	627.2804841	None	627.7596553	None	627.2804841	None	627.2804841	None	1	3	18	M	2021_Aug_01_1544	Social Reinforcement Learning	2021.1.4	60.29259602"
"94	0	94	0							Social	UD	Private	images/Private_trial.png	0.5	95	629.7581995	None	630.7606765	632.0244993	631.5166364	632.0244993	d	1.127478813	632.0057541	None	633.156065	None	629.274781	None	629.7581995	None	0.7	0.3	-1	633.1802756	None	633.6893292	None	633.1802756	None	633.1802756	None	1	3	18	M	2021_Aug_01_1544	Social Reinforcement Learning	2021.1.4	60.29259602"
"95	0	95	0							Social	UD	Private	images/Private_trial.png	0.5	96	635.6691795	None	636.6691641	637.9192068	637.432264	637.936529	a	3.277022201	637.9192068	None	641.2167986	None	635.1860044	None	635.6691795	None	0.7	0.3	1	641.2521871	None	641.7309608	None	641.2521871	None	641.2521871	None	1	3	18	M	2021_Aug_01_1544	Social Reinforcement Learning	2021.1.4	60.29259602"
"96	0	96	0							Social	UD	Observational	images/Observational_trial.png	-0.5	97	643.7453529	None	644.7442444	646.0020527	645.5359624	646.0415964	None		647.7752207	None	646.5109199	647.5249256	643.2522665	None	643.7453529	None	0.7	0.3	?	647.7880796	None	648.2723968	649.772573	647.7880796	None	647.7880796	None	1	3	18	M	2021_Aug_01_1544	Social Reinforcement Learning	2021.1.4	60.29259602"
"97	0	97	0							Social	UD	Observational	images/Observational_trial.png	-0.5	98	650.2895859	None	651.2894465	652.553737	652.0402058	652.553737	None		654.3024412	None	653.0373294	654.0522737	649.7917856	None	650.2895859	None	0.7	0.3	?	654.3215891	None	654.8067964	656.3162467	654.3215891	None	654.3215891	None	1	3	18	M	2021_Aug_01_1544	Social Reinforcement Learning	2021.1.4	60.29259602"
"98	0	98	0							Social	UD	Private	images/Private_trial.png	0.5	99	656.8331403	None	657.8324904	659.0809576	658.58361	659.0809576	a	2.095722986	659.0809576	None	661.1965971	None	656.3429497	None	656.8331403	None	0.7	0.3	1	661.237631	None	661.7177262	None	661.237631	None	661.237631	None	1	3	18	M	2021_Aug_01_1544	Social Reinforcement Learning	2021.1.4	60.29259602"
"99	0	99	0							Social	UD	Private	images/Private_trial.png	0.5	100	663.7098444	None	664.710657	665.9735605	665.4598886	665.9735605	a	2.563592246	665.9735605	None	668.5601386	None	663.2268111	None	663.7098444	None	0.7	0.3	1	668.5850749	None	669.0711672	None	668.5850749	None	668.5850749	None	1	3	18	M	2021_Aug_01_1544	Social Reinforcement Learning	2021.1.4	60.29259602"
"																																																		"
