"trials.thisRepN	trials.thisTrialN	trials.thisN	trials.thisIndex	textbox.started	textbox.stopped	key_resp_2.keys	key_resp_2.rt	key_resp_2.started	key_resp_2.stopped	block_type	learning_type	trial_type	image_path	x_image	trial	person.started	person.stopped	text.started	text.stopped	text_2.started	text_2.stopped	key_resp.keys	key_resp.rt	key_resp.started	key_resp.stopped	text_4.started	text_4.stopped	line.started	line.stopped	text_5.started	text_5.stopped	reward_a	reward_d	reward	image.started	image.stopped	text_3.started	text_3.stopped	line_2.started	line_2.stopped	text_6.started	text_6.stopped	session	exp_id	age	sex(M or F)	date	expName	psychopyVersion	frameRate"
"				29.79053883	None	f	7.797147815	29.79053883	None																																		2	3	18	M	2021_Aug_01_2005	Social Reinforcement Learning	2021.1.4	59.84018988"
"0	0	0	0							Private	PL	Private	images/Private_trial.png	0.5	1	38.17823551	None	39.17745132	40.42642613	39.92653793	40.42642613	a	2.51588858	40.42642613	None	42.95730824	None	37.68223195	None	38.17823551	None	0.3	0.7	-1	43.015055	None	43.48960238	None	43.015055	None	43.015055	None	2	3	18	M	2021_Aug_01_2005	Social Reinforcement Learning	2021.1.4	59.84018988"
"1	0	1	0							Private	PL	Private	images/Private_trial.png	0.5	2	45.47238086	None	46.47207192	47.73586391	47.21947518	47.71900388	d	0.780194544	47.71900388	None	48.51833061	None	44.98827181	None	45.47238086	None	0.3	0.7	1	48.52504255	None	49.01774379	50.53177558	48.52504255	None	48.52504255	None	2	3	18	M	2021_Aug_01_2005	Social Reinforcement Learning	2021.1.4	59.84018988"
"2	0	2	0							Private	PL	Private	images/Private_trial.png	0.5	3	51.05045645	None	52.07382829	53.33056764	52.80333448	53.31374553	d	0.951169619	53.29724618	None	54.26392884	None	50.55250485	None	51.05045645	None	0.3	0.7	1	54.28998535	None	54.77390793	56.29314979	54.28998535	None	54.28998535	None	2	3	18	M	2021_Aug_01_2005	Social Reinforcement Learning	2021.1.4	59.84018988"
"3	0	3	0							Private	PL	Private	images/Private_trial.png	0.5	4	56.81057042	None	57.81018721	59.07597545	58.56379175	59.07597545	d	1.216513014	59.07597545	None	60.30971132	None	56.3174595	None	56.81057042	None	0.3	0.7	1	60.33409554	None	60.8075241	62.32199836	60.33409554	None	60.33409554	None	2	3	18	M	2021_Aug_01_2005	Social Reinforcement Learning	2021.1.4	59.84018988"
"4	0	4	0							Private	PL	Private	images/Private_trial.png	0.5	5	62.82306108	None	63.82285249	65.0852827	64.57066543	65.0852827	d	0.852721894	65.0852827	None	65.95365985	None	62.33869761	None	62.82306108	None	0.3	0.7	1	65.98546213	None	66.46804704	None	65.98546213	None	65.98546213	None	2	3	18	M	2021_Aug_01_2005	Social Reinforcement Learning	2021.1.4	59.84018988"
"5	0	5	0							Private	PL	Private	images/Private_trial.png	0.5	6	68.4669464	None	69.4675623	70.71482097	70.21545385	70.71482097	d	0.930954721	70.71482097	None	71.6633387	None	67.98356663	None	68.4669464	None	0.3	0.7	1	71.66806189	None	72.16294387	None	71.66806189	None	71.66806189	None	2	3	18	M	2021_Aug_01_2005	Social Reinforcement Learning	2021.1.4	59.84018988"
"6	0	6	0							Private	PL	Private	images/Private_trial.png	0.5	7	74.16089113	None	75.16249666	76.42649843	75.91116609	76.42649843	d	0.664912067	76.42649843	None	77.10820788	None	73.678117	None	74.16089113	None	0.3	0.7	1	77.11684969	None	77.60779409	None	77.11684969	None	77.11684969	None	2	3	18	M	2021_Aug_01_2005	Social Reinforcement Learning	2021.1.4	59.84018988"
"7	0	7	0							Private	PL	Private	images/Private_trial.png	0.5	8	79.60713038	None	80.60672663	81.87043724	81.35464782	81.85372693	d	0.948867596	81.85372693	None	82.81983991	None	79.12322598	None	79.60713038	None	0.3	0.7	-1	82.82774888	None	83.31901091	84.81804143	82.82774888	None	82.82774888	None	2	3	18	M	2021_Aug_01_2005	Social Reinforcement Learning	2021.1.4	59.84018988"
"8	0	8	0							Private	PL	Private	images/Private_trial.png	0.5	9	85.33442265	None	86.33323312	87.58351401	87.08245998	87.58351401	a	0.419900113	87.58351401	None	None	None	84.83731608	None	85.33442265	None	0.3	0.7	1	88.03784965	None	88.53104156	None	88.03784965	None	88.03784965	None	2	3	18	M	2021_Aug_01_2005	Social Reinforcement Learning	2021.1.4	59.84018988"
"9	0	9	0							Private	PL	Private	images/Private_trial.png	0.5	10	90.5309981	None	91.53212837	92.7933576	92.27766655	92.7767184	a	0.564393036	92.7767184	None	93.35987701	None	90.04615068	None	90.5309981	None	0.3	0.7	1	93.36536662	None	93.86186045	95.36340791	93.36536662	None	93.36536662	None	2	3	18	M	2021_Aug_01_2005	Social Reinforcement Learning	2021.1.4	59.84018988"
"10	0	10	0							Private	PL	Private	images/Private_trial.png	0.5	11	95.87527279	None	96.873064	98.12219131	97.62236395	98.12219131	a	0.882167402	98.12219131	None	99.02996833	None	95.39000977	None	95.87527279	None	0.3	0.7	-1	99.03595019	None	99.53720293	None	99.03595019	None	99.03595019	None	2	3	18	M	2021_Aug_01_2005	Social Reinforcement Learning	2021.1.4	59.84018988"
"11	0	11	0							Private	PL	Private	images/Private_trial.png	0.5	12	101.5375383	None	102.5373199	103.8000539	103.2841049	103.8000539	d	1.527618744	103.8000539	None	105.3485222	None	101.0435927	None	101.5375383	None	0.3	0.7	1	105.356731	None	105.8561838	None	105.356731	None	105.356731	None	2	3	18	M	2021_Aug_01_2005	Social Reinforcement Learning	2021.1.4	59.84018988"
"12	0	12	0							Private	PL	Private	images/Private_trial.png	0.5	13	107.8675387	None	108.8813172	110.1438474	109.6309692	110.1438474	d	0.349847822	110.1272398	None	None	None	107.3863799	None	107.8675387	None	0.3	0.7	1	110.5092512	None	110.9940061	112.5028128	110.5092512	None	110.5092512	None	2	3	18	M	2021_Aug_01_2005	Social Reinforcement Learning	2021.1.4	59.84018988"
"13	0	13	0							Private	PL	Private	images/Private_trial.png	0.5	14	113.027484	None	114.0244369	115.2731229	114.7749307	115.2731229	d	0.644067047	115.2731229	None	115.9394716	None	112.5312995	None	113.027484	None	0.3	0.7	1	115.9575787	None	116.4383657	117.95159	115.9575787	None	115.9575787	None	2	3	18	M	2021_Aug_01_2005	Social Reinforcement Learning	2021.1.4	59.84018988"
"14	0	14	0							Private	PL	Private	images/Private_trial.png	0.5	15	118.4705292	None	119.4710511	120.7283585	120.2208065	120.7283585	d	0.986051172	120.7117881	None	121.7168245	None	117.9727214	None	118.4705292	None	0.3	0.7	1	121.7278501	None	122.216099	None	121.7278501	None	121.7278501	None	2	3	18	M	2021_Aug_01_2005	Social Reinforcement Learning	2021.1.4	59.84018988"
"15	0	15	0							Private	PL	Private	images/Private_trial.png	0.5	16	124.2150679	None	125.2146961	126.4794382	125.9666987	126.4794382	d	0.942995798	126.4794382	None	127.445025	None	123.731538	None	124.2150679	None	0.3	0.7	-1	127.466272	None	127.9465355	129.4517638	127.466272	None	127.466272	None	2	3	18	M	2021_Aug_01_2005	Social Reinforcement Learning	2021.1.4	59.84018988"
"16	0	16	0							Private	PL	Private	images/Private_trial.png	0.5	17	129.9615795	None	130.9578343	132.2242606	131.7074531	132.2069407	a	0.952828482	132.2069407	None	133.1894238	None	129.4786438	None	129.9615795	None	0.3	0.7	-1	133.199952	None	133.6914582	None	133.199952	None	133.199952	None	2	3	18	M	2021_Aug_01_2005	Social Reinforcement Learning	2021.1.4	59.84018988"
"17	0	17	0							Private	PL	Private	images/Private_trial.png	0.5	18	135.6893036	None	136.6858709	137.9348481	137.4351846	137.9348481	d	0.825174262	137.9348481	None	138.7843361	None	135.2038742	None	135.6893036	None	0.3	0.7	-1	138.7984685	None	139.2674558	140.766267	138.7984685	None	138.7984685	None	2	3	18	M	2021_Aug_01_2005	Social Reinforcement Learning	2021.1.4	59.84018988"
"18	0	18	0							Private	PL	Private	images/Private_trial.png	0.5	19	141.2984977	None	142.301657	143.5631589	143.0468942	143.5465548	d	3.297261987	143.5465548	None	146.8599864	None	140.8045339	None	141.2984977	None	0.3	0.7	1	146.8780872	None	147.3592163	148.8745771	146.8780872	None	146.8780872	None	2	3	18	M	2021_Aug_01_2005	Social Reinforcement Learning	2021.1.4	59.84018988"
"19	0	19	0							Private	PL	Private	images/Private_trial.png	0.5	20	149.3746233	None	150.3733315	151.636809	151.1226148	151.636809	d	0.929772697	151.636809	None	152.5891347	None	148.8914695	None	149.3746233	None	0.3	0.7	-1	152.613127	None	153.1151659	None	152.613127	None	152.613127	None	2	3	18	M	2021_Aug_01_2005	Social Reinforcement Learning	2021.1.4	59.84018988"
"20	0	20	0							Social	SD	Private	images/Private_trial.png	0.5	21	155.1198648	None	156.1179507	157.3862622	156.8672744	157.3862622	a	1.68779442	157.3665806	None	159.0818328	None	154.6276056	None	155.1198648	None	0.3	0.7	1	159.0897422	None	159.5812716	161.0800596	159.0897422	None	159.0897422	None	2	3	18	M	2021_Aug_01_2005	Social Reinforcement Learning	2021.1.4	59.84018988"
"21	0	21	0							Social	SD	Private	images/Private_trial.png	0.5	22	161.6110087	None	162.5972732	163.8629832	163.3442601	163.8456712	a	2.00591802	163.8456712	None	165.8768022	None	161.0988159	None	161.6110087	None	0.3	0.7	1	165.9012623	None	166.3791183	167.8900998	165.9012623	None	165.9012623	None	2	3	18	M	2021_Aug_01_2005	Social Reinforcement Learning	2021.1.4	59.84018988"
"22	0	22	0							Social	SD	Private	images/Private_trial.png	0.5	23	168.3905115	None	169.3887313	170.63778	170.154499	170.654533	a	1.975071625	170.654533	None	172.6528629	None	167.9072566	None	168.3905115	None	0.3	0.7	1	172.6683143	None	173.152024	174.6671513	172.6683143	None	172.6683143	None	2	3	18	M	2021_Aug_01_2005	Social Reinforcement Learning	2021.1.4	59.84018988"
"23	0	23	0							Social	SD	Observational	images/Observational_trial.png	-0.5	24	175.1838173	None	176.1838991	177.4478041	176.9315627	177.4311617	None		179.196164	None	177.9309492	178.948853	174.6948103	None	175.1838173	None	0.3	0.7	?	179.2139459	None	179.6994234	None	179.2139459	None	179.2139459	None	2	3	18	M	2021_Aug_01_2005	Social Reinforcement Learning	2021.1.4	59.84018988"
"24	0	24	0							Social	SD	Private	images/Private_trial.png	0.5	25	181.7220379	None	182.7113982	183.9749733	183.4586398	183.9585	a	3.383460438	183.9585	None	187.3719801	None	181.2208081	None	181.7220379	None	0.3	0.7	1	187.3829887	None	187.8717157	None	187.3829887	None	187.3829887	None	2	3	18	M	2021_Aug_01_2005	Social Reinforcement Learning	2021.1.4	59.84018988"
"25	0	25	0							Social	SD	Private	images/Private_trial.png	0.5	26	189.8698743	None	190.8699331	192.1171634	191.6184046	192.1171634	a	0.976126044	192.1171634	None	193.117252	None	189.3871159	None	189.8698743	None	0.3	0.7	-1	193.1675021	None	193.6583138	None	193.1675021	None	193.1675021	None	2	3	18	M	2021_Aug_01_2005	Social Reinforcement Learning	2021.1.4	59.84018988"
"26	0	26	0							Social	SD	Observational	images/Observational_trial.png	-0.5	27	195.7036751	None	196.6967023	197.951799	197.4413488	197.951799	None		199.7103431	None	198.4448218	199.4605567	195.2086679	None	195.7036751	None	0.3	0.7	?	199.7225634	None	200.2125557	201.711391	199.7225634	None	199.7225634	None	2	3	18	M	2021_Aug_01_2005	Social Reinforcement Learning	2021.1.4	59.84018988"
"27	0	27	0							Social	SD	Observational	images/Observational_trial.png	-0.5	28	202.2258254	None	203.2239346	204.4891113	203.9754793	204.4891113	None		206.2380326	None	204.9742471	205.9717563	201.7292364	None	202.2258254	None	0.3	0.7	?	206.2517158	None	206.73733	None	206.2517158	None	206.2517158	None	2	3	18	M	2021_Aug_01_2005	Social Reinforcement Learning	2021.1.4	59.84018988"
"28	0	28	0							Social	SD	Private	images/Private_trial.png	0.5	29	208.7561203	None	209.7532585	211.01523	210.500589	211.01523	d	0.84500832	211.01523	None	211.8821443	None	208.2639334	None	208.7561203	None	0.3	0.7	1	211.8979288	None	212.3818853	None	211.8979288	None	211.8979288	None	2	3	18	M	2021_Aug_01_2005	Social Reinforcement Learning	2021.1.4	59.84018988"
"29	0	29	0							Social	SD	Observational	images/Observational_trial.png	-0.5	30	214.3982543	None	215.3991483	216.6610314	216.145385	216.6444005	None		218.409462	None	217.1451274	218.1600145	213.9019655	None	214.3982543	None	0.3	0.7	?	218.4195892	None	218.9090343	None	218.4195892	None	218.4195892	None	2	3	18	M	2021_Aug_01_2005	Social Reinforcement Learning	2021.1.4	59.84018988"
"30	0	30	0							Social	SD	Private	images/Private_trial.png	0.5	31	220.9259528	None	221.9230736	223.1884834	222.6721476	223.1719347	d	2.11282875	223.1719347	None	225.3035962	None	220.4293164	None	220.9259528	None	0.3	0.7	1	225.330363	None	225.820716	None	225.330363	None	225.330363	None	2	3	18	M	2021_Aug_01_2005	Social Reinforcement Learning	2021.1.4	59.84018988"
"31	0	31	0							Social	SD	Observational	images/Observational_trial.png	-0.5	32	227.8514581	None	228.8496384	230.1152248	229.605353	230.1152248	None		231.8803143	None	230.6072347	231.6137101	227.3606725	None	227.8514581	None	0.3	0.7	?	231.9039693	None	232.390278	None	231.9039693	None	231.9039693	None	2	3	18	M	2021_Aug_01_2005	Social Reinforcement Learning	2021.1.4	59.84018988"
"32	0	32	0							Social	SD	Private	images/Private_trial.png	0.5	33	234.4140125	None	235.4128696	236.6756878	236.1655185	236.6756878	d	1.061029878	236.65906	None	237.7413041	None	233.9152992	None	234.4140125	None	0.3	0.7	-1	237.7527295	None	238.2246477	239.739197	237.7527295	None	237.7527295	None	2	3	18	M	2021_Aug_01_2005	Social Reinforcement Learning	2021.1.4	59.84018988"
"33	0	33	0							Social	SD	Private	images/Private_trial.png	0.5	34	240.24018	None	241.2394926	242.5156326	242.0023186	242.5156326	a	0.880026959	242.4870096	None	243.3862264	None	239.7559978	None	240.24018	None	0.3	0.7	1	243.3953099	None	243.8857482	None	243.3953099	None	243.3953099	None	2	3	18	M	2021_Aug_01_2005	Social Reinforcement Learning	2021.1.4	59.84018988"
"34	0	34	0							Social	SD	Private	images/Private_trial.png	0.5	35	245.8843308	None	246.8828323	248.1318186	247.6497729	248.1652246	a	1.047283321	248.1318186	None	249.2008636	None	245.4008882	None	245.8843308	None	0.3	0.7	1	249.2247319	None	249.697492	251.2125545	249.2247319	None	249.2247319	None	2	3	18	M	2021_Aug_01_2005	Social Reinforcement Learning	2021.1.4	59.84018988"
"35	0	35	0							Social	SD	Observational	images/Observational_trial.png	-0.5	36	251.7285102	None	252.741934	253.9931899	253.4765914	253.9768103	None		255.7442449	None	254.4958246	255.5082264	251.23499	None	251.7285102	None	0.3	0.7	?	255.7908695	None	256.279515	None	255.7908695	None	255.7908695	None	2	3	18	M	2021_Aug_01_2005	Social Reinforcement Learning	2021.1.4	59.84018988"
"36	0	36	0							Social	SD	Observational	images/Observational_trial.png	-0.5	37	258.2890728	None	259.2879239	260.5523172	260.0433236	260.5710297	None		262.3187069	None	261.0470641	262.0520896	257.7992128	None	258.2890728	None	0.3	0.7	?	262.323007	None	262.8266012	None	262.323007	None	262.323007	None	2	3	18	M	2021_Aug_01_2005	Social Reinforcement Learning	2021.1.4	59.84018988"
"37	0	37	0							Social	SD	Observational	images/Observational_trial.png	-0.5	38	264.8349007	None	265.8321862	267.0974253	266.5849848	267.0974253	None		268.8465516	None	267.5827278	268.5945785	264.3354044	None	264.8349007	None	0.3	0.7	?	268.8662808	None	269.3456017	270.860428	268.8662808	None	268.8662808	None	2	3	18	M	2021_Aug_01_2005	Social Reinforcement Learning	2021.1.4	59.84018988"
"38	0	38	0							Social	SD	Private	images/Private_trial.png	0.5	39	271.3968242	None	272.3939845	273.6584339	273.1415833	273.6415813	d	0.519793367	273.6415813	None	274.1905047	None	270.8983017	None	271.3968242	None	0.3	0.7	-1	274.2007836	None	274.7099167	None	274.2007836	None	274.2007836	None	2	3	18	M	2021_Aug_01_2005	Social Reinforcement Learning	2021.1.4	59.84018988"
"39	0	39	0							Social	SD	Private	images/Private_trial.png	0.5	40	276.6882227	None	277.6897926	278.9532682	278.4365306	278.9365678	a	0.601172858	278.9365678	None	279.5539351	None	276.2053889	None	276.6882227	None	0.3	0.7	-1	279.5792501	None	280.0619132	281.5668942	279.5792501	None	279.5792501	None	2	3	18	M	2021_Aug_01_2005	Social Reinforcement Learning	2021.1.4	59.84018988"
"40	0	40	0							Social	SD	Private	images/Private_trial.png	0.5	41	282.1001975	None	283.098774	284.3648846	283.8532153	284.3648846	d	0.852741647	284.3481013	None	285.220209	None	281.602072	None	282.1001975	None	0.3	0.7	1	285.2452004	None	285.729859	None	285.2452004	None	285.2452004	None	2	3	18	M	2021_Aug_01_2005	Social Reinforcement Learning	2021.1.4	59.84018988"
"41	0	41	0							Social	SD	Observational	images/Observational_trial.png	-0.5	42	287.7485588	None	288.7441784	290.0089995	289.5094676	290.0089995	None		291.7745038	None	290.5226734	291.5253918	287.2520527	None	287.7485588	None	0.3	0.7	?	291.7978566	None	292.2861616	None	291.7978566	None	291.7978566	None	2	3	18	M	2021_Aug_01_2005	Social Reinforcement Learning	2021.1.4	59.84018988"
"42	0	42	0							Social	SD	Observational	images/Observational_trial.png	-0.5	43	294.2723372	None	295.2728847	296.5364097	296.0201861	296.5197657	None		298.2847355	None	297.0192549	298.0191921	293.78904	None	294.2723372	None	0.3	0.7	?	298.2922317	None	298.7893746	None	298.2922317	None	298.2922317	None	2	3	18	M	2021_Aug_01_2005	Social Reinforcement Learning	2021.1.4	59.84018988"
"43	0	43	0							Social	SD	Private	images/Private_trial.png	0.5	44	300.8037343	None	301.798425	303.048655	302.5481378	303.048655	a	0.81197763	303.048655	None	303.8798067	None	300.301968	None	300.8037343	None	0.3	0.7	1	303.8911965	None	304.3861824	None	303.8911965	None	303.8911965	None	2	3	18	M	2021_Aug_01_2005	Social Reinforcement Learning	2021.1.4	59.84018988"
"44	0	44	0							Social	SD	Observational	images/Observational_trial.png	-0.5	45	306.4279495	None	307.4277575	308.6920046	308.1758181	308.6751805	None		310.4404466	None	309.1767576	310.1909403	305.9356326	None	306.4279495	None	0.3	0.7	?	310.4763674	None	310.973619	None	310.4763674	None	310.4763674	None	2	3	18	M	2021_Aug_01_2005	Social Reinforcement Learning	2021.1.4	59.84018988"
"45	0	45	0							Social	SD	Observational	images/Observational_trial.png	-0.5	46	312.938788	None	313.9402505	315.2030691	314.6921749	315.2030691	None		316.9507091	None	315.6908245	316.7010874	312.4553976	None	312.938788	None	0.3	0.7	?	316.9569162	None	317.4532342	318.9632996	316.9569162	None	316.9569162	None	2	3	18	M	2021_Aug_01_2005	Social Reinforcement Learning	2021.1.4	59.84018988"
"46	0	46	0							Social	SD	Observational	images/Observational_trial.png	-0.5	47	319.4670827	None	320.4707042	321.7297089	321.2171107	321.7297089	None		323.4783678	None	322.2127129	323.2282246	318.9822455	None	319.4670827	None	0.3	0.7	?	323.4921738	None	323.9776597	None	323.4921738	None	323.4921738	None	2	3	18	M	2021_Aug_01_2005	Social Reinforcement Learning	2021.1.4	59.84018988"
"47	0	47	0							Social	SD	Observational	images/Observational_trial.png	-0.5	48	325.9937888	None	326.9910511	328.240319	327.7425132	328.2569926	None		330.0052169	None	328.7488275	329.7555036	325.4954844	None	325.9937888	None	0.3	0.7	?	330.0081517	None	330.4882019	332.0032379	330.0081517	None	330.0081517	None	2	3	18	M	2021_Aug_01_2005	Social Reinforcement Learning	2021.1.4	59.84018988"
"48	0	48	0							Social	SD	Observational	images/Observational_trial.png	-0.5	49	332.5219796	None	333.5214048	334.7704081	334.2680725	334.7704081	None		336.5326397	None	335.2669608	336.2826949	332.0255786	None	332.5219796	None	0.3	0.7	?	336.537082	None	337.0381823	None	336.537082	None	336.537082	None	2	3	18	M	2021_Aug_01_2005	Social Reinforcement Learning	2021.1.4	59.84018988"
"49	0	49	0							Social	SD	Observational	images/Observational_trial.png	-0.5	50	339.0297023	None	340.0326937	341.2953894	340.7974654	341.3122226	None		343.0450854	None	341.7853351	342.7920796	338.5472011	None	339.0297023	None	0.3	0.7	?	343.0678411	None	343.5424462	345.057626	343.0678411	None	343.0678411	None	2	3	18	M	2021_Aug_01_2005	Social Reinforcement Learning	2021.1.4	59.84018988"
"50	0	50	0							Social	SD	Observational	images/Observational_trial.png	-0.5	51	345.5577418	None	346.5582735	347.8072187	347.3055318	347.8072187	None		349.5706541	None	348.3224234	349.3214753	345.0742273	None	345.5577418	None	0.3	0.7	?	349.5854146	None	350.0713556	None	349.5854146	None	349.5854146	None	2	3	18	M	2021_Aug_01_2005	Social Reinforcement Learning	2021.1.4	59.84018988"
"51	0	51	0							Social	SD	Observational	images/Observational_trial.png	-0.5	52	352.0678372	None	353.0690271	354.3323861	353.8172015	354.3323861	None		356.0817091	None	354.8156711	355.831385	351.5856264	None	352.0678372	None	0.3	0.7	?	356.0991782	None	356.5850026	358.0966063	356.0991782	None	356.0991782	None	2	3	18	M	2021_Aug_01_2005	Social Reinforcement Learning	2021.1.4	59.84018988"
"52	0	52	0							Social	SD	Private	images/Private_trial.png	0.5	53	358.6152888	None	359.6109475	360.8623211	360.3657364	360.8787489	d	1.069959056	360.8623211	None	361.9586898	None	358.1269159	None	358.6152888	None	0.3	0.7	1	361.9745063	None	362.4498071	363.9568257	361.9745063	None	361.9745063	None	2	3	18	M	2021_Aug_01_2005	Social Reinforcement Learning	2021.1.4	59.84018988"
"53	0	53	0							Social	SD	Private	images/Private_trial.png	0.5	54	364.4719285	None	365.456676	366.7207433	366.2095872	366.7207433	d	0.949565669	366.7042618	None	367.6885594	None	363.9733748	None	364.4719285	None	0.3	0.7	1	367.7054059	None	368.1861055	369.7010827	367.7054059	None	367.7054059	None	2	3	18	M	2021_Aug_01_2005	Social Reinforcement Learning	2021.1.4	59.84018988"
"54	0	54	0							Social	SD	Private	images/Private_trial.png	0.5	55	370.2015378	None	371.202544	372.4652832	371.9493946	372.448561	d	1.353073104	372.448561	None	373.8314109	None	369.7178124	None	370.2015378	None	0.3	0.7	1	373.8466281	None	374.3332007	None	373.8466281	None	373.8466281	None	2	3	18	M	2021_Aug_01_2005	Social Reinforcement Learning	2021.1.4	59.84018988"
"55	0	55	0							Social	SD	Private	images/Private_trial.png	0.5	56	376.3464246	None	377.344251	378.6096837	378.0933467	378.5930611	d	0.500685432	378.5930611	None	379.1257526	None	375.8535045	None	376.3464246	None	0.3	0.7	-1	379.131911	None	379.6280651	None	379.131911	None	379.131911	None	2	3	18	M	2021_Aug_01_2005	Social Reinforcement Learning	2021.1.4	59.84018988"
"56	0	56	0							Social	SD	Observational	images/Observational_trial.png	-0.5	57	381.6457267	None	382.6397589	383.9060307	383.3887416	383.8882869	None		385.6567613	None	384.3878156	385.4051386	381.1502103	None	381.6457267	None	0.3	0.7	?	385.697906	None	386.1859886	None	385.697906	None	385.697906	None	2	3	18	M	2021_Aug_01_2005	Social Reinforcement Learning	2021.1.4	59.84018988"
"57	0	57	0							Social	SD	Observational	images/Observational_trial.png	-0.5	58	388.1674002	None	389.1667744	390.4322517	389.9221618	390.4322517	None		392.180926	None	390.9149745	391.914152	387.6844633	None	388.1674002	None	0.3	0.7	?	392.1955526	None	392.6798169	None	392.1955526	None	392.1955526	None	2	3	18	M	2021_Aug_01_2005	Social Reinforcement Learning	2021.1.4	59.84018988"
"58	0	58	0							Social	SD	Private	images/Private_trial.png	0.5	59	394.6970041	None	395.695555	396.9591621	396.45978	396.9591621	a	0.99955121	396.9591621	None	397.9757319	None	394.2022477	None	394.6970041	None	0.3	0.7	1	398.0186852	None	398.4912889	None	398.0186852	None	398.0186852	None	2	3	18	M	2021_Aug_01_2005	Social Reinforcement Learning	2021.1.4	59.84018988"
"59	0	59	0							Social	SD	Private	images/Private_trial.png	0.5	60	400.4903965	None	401.4881561	402.753795	402.2379163	402.7371558	a	2.12263931	402.7371558	None	404.88556	None	400.0064154	None	400.4903965	None	0.3	0.7	1	404.9001818	None	405.3850845	None	404.9001818	None	404.9001818	None	2	3	18	M	2021_Aug_01_2005	Social Reinforcement Learning	2021.1.4	59.84018988"
"60	0	60	0							Social	UD	Observational	images/Observational_trial.png	-0.5	61	407.404211	None	408.3985656	409.6478577	409.1652957	409.6643712	None		411.429667	None	410.1652451	411.1799762	406.9148303	None	407.404211	None	0.3	0.7	?	411.4598535	None	411.947012	None	411.4598535	None	411.4598535	None	2	3	18	M	2021_Aug_01_2005	Social Reinforcement Learning	2021.1.4	59.84018988"
"61	0	61	0							Social	UD	Private	images/Private_trial.png	0.5	62	413.9634596	None	414.9612401	416.2251965	415.7105377	416.2251965	a	0.725942735	416.2081839	None	416.9571795	None	413.4639459	None	413.9634596	None	0.3	0.7	-1	416.9735933	None	417.4588923	None	416.9735933	None	416.9735933	None	2	3	18	M	2021_Aug_01_2005	Social Reinforcement Learning	2021.1.4	59.84018988"
"62	0	62	0							Social	UD	Private	images/Private_trial.png	0.5	63	419.4720399	None	420.4578355	421.7298116	421.2220368	421.75064	d	0.550039269	421.7298116	None	422.3025884	None	418.9833655	None	419.4720399	None	0.3	0.7	-1	422.3152661	None	422.8023638	None	422.3152661	None	422.3152661	None	2	3	18	M	2021_Aug_01_2005	Social Reinforcement Learning	2021.1.4	59.84018988"
"63	0	63	0							Social	UD	Private	images/Private_trial.png	0.5	64	424.808761	None	425.8002668	427.0644468	426.551021	427.0644468	d	0.739973341	427.0644468	None	427.8335683	None	424.3172027	None	424.808761	None	0.3	0.7	1	427.8674383	None	428.3640779	None	427.8674383	None	427.8674383	None	2	3	18	M	2021_Aug_01_2005	Social Reinforcement Learning	2021.1.4	59.84018988"
"64	0	64	0							Social	UD	Private	images/Private_trial.png	0.5	65	430.345478	None	431.346278	432.5952118	432.0931341	432.5952118	d	0.641869715	432.5952118	None	433.2590392	None	429.8617684	None	430.345478	None	0.3	0.7	-1	433.2715206	None	433.7580675	None	433.2715206	None	433.2715206	None	2	3	18	M	2021_Aug_01_2005	Social Reinforcement Learning	2021.1.4	59.84018988"
"65	0	65	0							Social	UD	Private	images/Private_trial.png	0.5	66	435.756029	None	436.7553333	438.019746	437.5101278	438.019746	a	2.1235041	438.019746	None	440.1688304	None	435.2731688	None	435.756029	None	0.3	0.7	-1	440.1732475	None	440.6686821	442.1692084	440.1732475	None	440.1732475	None	2	3	18	M	2021_Aug_01_2005	Social Reinforcement Learning	2021.1.4	59.84018988"
"66	0	66	0							Social	UD	Observational	images/Observational_trial.png	-0.5	67	442.7038043	None	443.6994598	444.9653203	444.4405026	444.9466236	None		446.7050303	None	445.4556362	446.4629531	442.2111943	None	442.7038043	None	0.3	0.7	?	446.7459945	None	447.2285332	None	446.7459945	None	446.7459945	None	2	3	18	M	2021_Aug_01_2005	Social Reinforcement Learning	2021.1.4	59.84018988"
"67	0	67	0							Social	UD	Observational	images/Observational_trial.png	-0.5	68	449.2275257	None	450.2277592	451.4904103	450.9713027	451.4904103	None		453.2316812	None	451.9725685	452.9769059	448.7348684	None	449.2275257	None	0.3	0.7	?	453.2539526	None	453.7393381	None	453.2539526	None	453.2539526	None	2	3	18	M	2021_Aug_01_2005	Social Reinforcement Learning	2021.1.4	59.84018988"
"68	0	68	0							Social	UD	Observational	images/Observational_trial.png	-0.5	69	455.7551868	None	456.7536867	458.0188527	457.5043955	458.0188527	None		459.7673197	None	458.5136201	459.5173709	455.2577057	None	455.7551868	None	0.3	0.7	?	459.7717568	None	460.2667115	None	459.7717568	None	459.7717568	None	2	3	18	M	2021_Aug_01_2005	Social Reinforcement Learning	2021.1.4	59.84018988"
"69	0	69	0							Social	UD	Observational	images/Observational_trial.png	-0.5	70	462.2811964	None	463.2806011	464.5364618	464.0388942	464.5617722	None		466.2923981	None	465.0362508	466.0435938	461.7834289	None	462.2811964	None	0.3	0.7	?	466.2962577	None	466.7796099	468.2926978	466.2962577	None	466.2962577	None	2	3	18	M	2021_Aug_01_2005	Social Reinforcement Learning	2021.1.4	59.84018988"
"70	0	70	0							Social	UD	Observational	images/Observational_trial.png	-0.5	71	468.8088049	None	469.8093904	471.0735028	470.5574534	471.0569216	None		472.8222008	None	471.5604404	472.573775	468.3165655	None	468.8088049	None	0.3	0.7	?	472.8367918	None	473.3214623	None	472.8367918	None	472.8367918	None	2	3	18	M	2021_Aug_01_2005	Social Reinforcement Learning	2021.1.4	59.84018988"
"71	0	71	0							Social	UD	Observational	images/Observational_trial.png	-0.5	72	475.3375555	None	476.3380217	477.5862668	477.0842358	477.5862668	None		479.3490037	None	478.0851373	479.099126	474.8387383	None	475.3375555	None	0.3	0.7	?	479.3536329	None	479.8518172	None	479.3536329	None	479.3536329	None	2	3	18	M	2021_Aug_01_2005	Social Reinforcement Learning	2021.1.4	59.84018988"
"72	0	72	0							Social	UD	Observational	images/Observational_trial.png	-0.5	73	481.8465783	None	482.8506656	484.1110316	483.6114445	484.1110316	None		485.8765818	None	484.6112647	485.6108131	481.3651355	None	481.8465783	None	0.3	0.7	?	485.8904985	None	486.3767314	None	485.8904985	None	485.8904985	None	2	3	18	M	2021_Aug_01_2005	Social Reinforcement Learning	2021.1.4	59.84018988"
"73	0	73	0							Social	UD	Private	images/Private_trial.png	0.5	74	488.3903416	None	489.3898296	490.6549206	490.1393334	490.6381601	a	1.163188019	490.6549206	None	491.837451	None	487.8976574	None	488.3903416	None	0.3	0.7	1	491.8579142	None	492.3367974	493.8381461	491.8579142	None	491.8579142	None	2	3	18	M	2021_Aug_01_2005	Social Reinforcement Learning	2021.1.4	59.84018988"
"74	0	74	0							Social	UD	Private	images/Private_trial.png	0.5	75	494.3519436	None	495.3525248	496.6150186	496.102008	496.6150186	a	0.631752982	496.6150186	None	497.2658081	None	493.8602529	None	494.3519436	None	0.3	0.7	-1	497.2898435	None	497.7813797	499.2805461	497.2898435	None	497.2898435	None	2	3	18	M	2021_Aug_01_2005	Social Reinforcement Learning	2021.1.4	59.84018988"
"75	0	75	0							Social	UD	Observational	images/Observational_trial.png	-0.5	76	499.7997086	None	500.7976286	502.0616454	501.5466639	502.0616454	None		503.809581	None	502.5438242	503.5433193	499.302028	None	499.7997086	None	0.3	0.7	?	503.8227948	None	504.3086413	505.8120847	503.8227948	None	503.8227948	None	2	3	18	M	2021_Aug_01_2005	Social Reinforcement Learning	2021.1.4	59.84018988"
"76	0	76	0							Social	UD	Observational	images/Observational_trial.png	-0.5	77	506.3248558	None	507.3229481	508.5880734	508.0775071	508.5880734	None		510.339045	None	509.0722117	510.0857113	505.8396355	None	506.3248558	None	0.3	0.7	?	510.3630753	None	510.8370131	512.3513514	510.3630753	None	510.3630753	None	2	3	18	M	2021_Aug_01_2005	Social Reinforcement Learning	2021.1.4	59.84018988"
"77	0	77	0							Social	UD	Observational	images/Observational_trial.png	-0.5	78	512.8674217	None	513.850685	515.1159252	514.5994539	515.0992418	None		516.8640161	None	515.6194069	516.6314132	512.367895	None	512.8674217	None	0.3	0.7	?	516.8751724	None	517.36359	None	516.8751724	None	516.8751724	None	2	3	18	M	2021_Aug_01_2005	Social Reinforcement Learning	2021.1.4	59.84018988"
"78	0	78	0							Social	UD	Private	images/Private_trial.png	0.5	79	519.3815705	None	520.3774211	521.642697	521.1317526	521.642697	d	0.451043594	521.6263209	None	None	None	518.8815673	None	519.3815705	None	0.3	0.7	1	522.1036507	None	522.5945022	None	522.1036507	None	522.1036507	None	2	3	18	M	2021_Aug_01_2005	Social Reinforcement Learning	2021.1.4	59.84018988"
"79	0	79	0							Social	UD	Private	images/Private_trial.png	0.5	80	524.6148127	None	525.6081362	526.8708651	526.3611241	526.8708651	d	1.051536157	526.8542855	None	527.9369701	None	524.110151	None	524.6148127	None	0.3	0.7	1	527.9541926	None	528.4366551	529.9402505	527.9541926	None	527.9541926	None	2	3	18	M	2021_Aug_01_2005	Social Reinforcement Learning	2021.1.4	59.84018988"
"80	0	80	0							Social	UD	Private	images/Private_trial.png	0.5	81	530.4521122	None	531.452087	532.7160216	532.2140348	532.7160216	d	1.916590683	532.6991931	None	534.6319333	None	529.9670037	None	530.4521122	None	0.3	0.7	1	534.6563969	None	535.1299503	536.645641	534.6563969	None	534.6563969	None	2	3	18	M	2021_Aug_01_2005	Social Reinforcement Learning	2021.1.4	59.84018988"
"81	0	81	0							Social	UD	Private	images/Private_trial.png	0.5	82	537.1618729	None	538.1604759	539.4246361	538.9147497	539.4246361	d	1.609505889	539.4046014	None	541.0448392	None	536.6642448	None	537.1618729	None	0.3	0.7	-1	541.0775458	None	541.5824884	None	541.0775458	None	541.0775458	None	2	3	18	M	2021_Aug_01_2005	Social Reinforcement Learning	2021.1.4	59.84018988"
"82	0	82	0							Social	UD	Private	images/Private_trial.png	0.5	83	543.6056912	None	544.6074034	545.8705976	545.3542002	545.853693	a	0.846010591	545.853693	None	546.7196804	None	543.1070585	None	543.6056912	None	0.3	0.7	-1	546.7336243	None	547.2061727	548.7175659	546.7336243	None	546.7336243	None	2	3	18	M	2021_Aug_01_2005	Social Reinforcement Learning	2021.1.4	59.84018988"
"83	0	83	0							Social	UD	Private	images/Private_trial.png	0.5	84	549.2175615	None	550.2329934	551.4994734	550.971183	551.4803295	a	0.711827586	551.4803295	None	552.2144924	None	548.7342864	None	549.2175615	None	0.3	0.7	1	552.224805	None	552.7222244	None	552.224805	None	552.224805	None	2	3	18	M	2021_Aug_01_2005	Social Reinforcement Learning	2021.1.4	59.84018988"
"84	0	84	0							Social	UD	Private	images/Private_trial.png	0.5	85	554.712965	None	555.7107412	556.9598661	556.461265	556.9761221	a	0.751487406	556.9598661	None	557.747471	None	554.2289784	None	554.712965	None	0.3	0.7	-1	557.7601985	None	558.2421094	559.7460277	557.7601985	None	557.7601985	None	2	3	18	M	2021_Aug_01_2005	Social Reinforcement Learning	2021.1.4	59.84018988"
"85	0	85	0							Social	UD	Private	images/Private_trial.png	0.5	86	560.258621	None	561.2568602	562.5210623	562.0048533	562.5045077	d	0.759748931	562.5045077	None	563.2872248	None	559.7725311	None	560.258621	None	0.3	0.7	1	563.3029157	None	563.7865827	565.2856551	563.3029157	None	563.3029157	None	2	3	18	M	2021_Aug_01_2005	Social Reinforcement Learning	2021.1.4	59.84018988"
"86	0	86	0							Social	UD	Observational	images/Observational_trial.png	-0.5	87	565.8305455	None	566.8168878	568.0659433	567.5663984	568.0659433	None		569.8311316	None	568.5654696	569.5647107	565.3237125	None	565.8305455	None	0.3	0.7	?	569.8515363	None	570.3303725	None	569.8515363	None	569.8515363	None	2	3	18	M	2021_Aug_01_2005	Social Reinforcement Learning	2021.1.4	59.84018988"
"87	0	87	0							Social	UD	Private	images/Private_trial.png	0.5	88	572.3496092	None	573.3445868	574.6101455	574.0991509	574.6101455	d	1.434379114	574.5933937	None	576.0584744	None	571.8575029	None	572.3496092	None	0.3	0.7	-1	576.0756238	None	576.5580519	578.0585967	576.0756238	None	576.0756238	None	2	3	18	M	2021_Aug_01_2005	Social Reinforcement Learning	2021.1.4	59.84018988"
"88	0	88	0							Social	UD	Observational	images/Observational_trial.png	-0.5	89	578.5769635	None	579.573997	580.8371095	580.3258625	580.8371095	None		582.6035023	None	581.3334077	582.3534784	578.0890958	None	578.5769635	None	0.3	0.7	?	582.6535521	None	583.1350948	None	582.6535521	None	582.6535521	None	2	3	18	M	2021_Aug_01_2005	Social Reinforcement Learning	2021.1.4	59.84018988"
"89	0	89	0							Social	UD	Observational	images/Observational_trial.png	-0.5	90	585.1183011	None	586.1187385	587.3815847	586.8651841	587.3647582	None		589.1333942	None	587.8646919	588.8797488	584.6337974	None	585.1183011	None	0.3	0.7	?	589.1580068	None	589.653658	None	589.1580068	None	589.1580068	None	2	3	18	M	2021_Aug_01_2005	Social Reinforcement Learning	2021.1.4	59.84018988"
"90	0	90	0							Social	UD	Observational	images/Observational_trial.png	-0.5	91	591.6444759	None	592.6449662	593.9107019	593.3923829	593.9107019	None		595.6577652	None	594.4114422	595.4141433	591.1685458	None	591.6444759	None	0.3	0.7	?	595.6853838	None	596.1729097	597.6779574	595.6853838	None	595.6853838	None	2	3	18	M	2021_Aug_01_2005	Social Reinforcement Learning	2021.1.4	59.84018988"
"91	0	91	0							Social	UD	Observational	images/Observational_trial.png	-0.5	92	598.221669	None	599.2034807	600.4705719	599.9548417	600.4705719	None		602.2179101	None	600.955955	601.9676927	597.7023426	None	598.221669	None	0.3	0.7	?	602.2397632	None	602.7203455	604.2320385	602.2397632	None	602.2397632	None	2	3	18	M	2021_Aug_01_2005	Social Reinforcement Learning	2021.1.4	59.84018988"
"92	0	92	0							Social	UD	Observational	images/Observational_trial.png	-0.5	93	604.750657	None	605.7478256	607.0128679	606.4967004	606.9963943	None		608.761854	None	607.5192932	608.5287909	604.2625116	None	604.750657	None	0.3	0.7	?	608.7774975	None	609.2624247	None	608.7774975	None	608.7774975	None	2	3	18	M	2021_Aug_01_2005	Social Reinforcement Learning	2021.1.4	59.84018988"
"93	0	93	0							Social	UD	Private	images/Private_trial.png	0.5	94	611.2962107	None	612.2934307	613.5566479	613.0410504	613.5402718	a	1.000991999	613.5402718	None	614.5728902	None	610.7974745	None	611.2962107	None	0.3	0.7	-1	614.5981103	None	615.0890662	None	614.5981103	None	614.5981103	None	2	3	18	M	2021_Aug_01_2005	Social Reinforcement Learning	2021.1.4	59.84018988"
"94	0	94	0							Social	UD	Private	images/Private_trial.png	0.5	95	617.086635	None	618.1044266	619.3693429	618.8350212	619.3348667	a	2.203733567	619.3348667	None	621.5632685	None	616.6038395	None	617.086635	None	0.3	0.7	-1	621.5911983	None	622.0819673	None	621.5911983	None	621.5911983	None	2	3	18	M	2021_Aug_01_2005	Social Reinforcement Learning	2021.1.4	59.84018988"
"95	0	95	0							Social	UD	Observational	images/Observational_trial.png	-0.5	96	624.1010575	None	625.0980017	626.3622796	625.8642111	626.3791317	None		628.1206152	None	626.8442048	627.8607709	623.6031189	None	624.1010575	None	0.3	0.7	?	628.1649776	None	628.6426472	None	628.1649776	None	628.1649776	None	2	3	18	M	2021_Aug_01_2005	Social Reinforcement Learning	2021.1.4	59.84018988"
"96	0	96	0							Social	UD	Observational	images/Observational_trial.png	-0.5	97	630.6261348	None	631.6259092	632.8889277	632.3723703	632.8719965	None		634.637365	None	633.3714036	634.3705747	630.141189	None	630.6261348	None	0.3	0.7	?	634.6513188	None	635.1444605	None	634.6513188	None	634.6513188	None	2	3	18	M	2021_Aug_01_2005	Social Reinforcement Learning	2021.1.4	59.84018988"
"97	0	97	0							Social	UD	Private	images/Private_trial.png	0.5	98	637.1514571	None	638.1503928	639.3995217	638.9197326	639.433126	d	0.704433616	639.4163947	None	640.1489782	None	636.6587558	None	637.1514571	None	0.3	0.7	1	640.1758169	None	640.6659902	None	640.1758169	None	640.1758169	None	2	3	18	M	2021_Aug_01_2005	Social Reinforcement Learning	2021.1.4	59.84018988"
"98	0	98	0							Social	UD	Private	images/Private_trial.png	0.5	99	642.6813766	None	643.6784714	644.9439807	644.4285176	644.9439807	d	1.298239369	644.9275011	None	646.244335	None	642.1821909	None	642.6813766	None	0.3	0.7	1	646.2682996	None	646.74293	648.2650289	646.2682996	None	646.2682996	None	2	3	18	M	2021_Aug_01_2005	Social Reinforcement Learning	2021.1.4	59.84018988"
"99	0	99	0							Social	UD	Observational	images/Observational_trial.png	-0.5	100	648.8071911	None	649.8084568	651.0720596	650.564233	651.0720596	None		652.8202053	None	651.5637649	652.56995	648.3154889	None	648.8071911	None	0.3	0.7	?	652.8326551	None	653.3194664	None	652.8326551	None	652.8326551	None	2	3	18	M	2021_Aug_01_2005	Social Reinforcement Learning	2021.1.4	59.84018988"
"																																																		"
